pos,corr_resp,trials.thisRepN,trials.thisTrialN,trials.thisN,trials.thisIndex,trials_2.thisRepN,trials_2.thisTrialN,trials_2.thisN,trials_2.thisIndex,fixation.started,line1.started,line2.started,line3.started,line4.started,fixation.stopped,probe.started,key_resp.started,key_resp.keys,key_resp.corr,key_resp.rt,participant,session,date,expName,psychopyVersion,frameRate,
-50,x,0,0,0,0,,,,,35.879893200006336,36.764343500020914,36.764343500020914,36.764343500020914,36.764343500020914,36.88094810000621,37.76443079998717,37.76443079998717,x,1,0.9524971999926493,284617,001,2022-10-05_11h15.34.665,Tutorial 4 Motor sequence learning,2022.2.2,60.145347246611095,
150,v,0,1,1,1,,,,,38.78983070002869,39.78115290007554,39.78115290007554,39.78115290007554,39.78115290007554,39.79775729996618,40.780542799970135,40.780542799970135,v,1,0.9786952999420464,284617,001,2022-10-05_11h15.34.665,Tutorial 4 Motor sequence learning,2022.2.2,60.145347246611095,
50,c,0,2,2,2,,,,,41.78149369999301,42.78094790002797,42.78094790002797,42.78094790002797,42.78094790002797,42.78094790002797,43.780776700004935,43.780776700004935,c,1,0.7551757999463007,284617,001,2022-10-05_11h15.34.665,Tutorial 4 Motor sequence learning,2022.2.2,60.145347246611095,
-150,z,0,3,3,3,,,,,44.56398590002209,45.54781380004715,45.54781380004715,45.54781380004715,45.54781380004715,45.56444730004296,46.54756980005186,46.54756980005186,z,1,0.5272831000620499,284617,001,2022-10-05_11h15.34.665,Tutorial 4 Motor sequence learning,2022.2.2,60.145347246611095,
-50,x,1,0,4,0,,,,,47.09768390003592,48.09788060002029,48.09788060002029,48.09788060002029,48.09788060002029,48.09788060002029,49.097646499983966,49.097646499983966,x,1,0.7449073999887332,284617,001,2022-10-05_11h15.34.665,Tutorial 4 Motor sequence learning,2022.2.2,60.145347246611095,
150,v,1,1,5,1,,,,,49.86443409998901,50.86393460002728,50.86393460002728,50.86393460002728,50.86393460002728,50.86393460002728,51.86491780006327,51.86491780006327,v,1,0.9749416999984533,284617,001,2022-10-05_11h15.34.665,Tutorial 4 Motor sequence learning,2022.2.2,60.145347246611095,
50,c,1,2,6,2,,,,,52.864105500048026,53.86483950004913,53.86483950004913,53.86483950004913,53.86483950004913,53.86483950004913,54.86502460006159,54.86502460006159,c,1,0.7018693999852985,284617,001,2022-10-05_11h15.34.665,Tutorial 4 Motor sequence learning,2022.2.2,60.145347246611095,
-150,z,1,3,7,3,,,,,55.59795369999483,56.598418900044635,56.598418900044635,56.598418900044635,56.598418900044635,56.598418900044635,57.59859409998171,57.59859409998171,z,1,0.6614671000279486,284617,001,2022-10-05_11h15.34.665,Tutorial 4 Motor sequence learning,2022.2.2,60.145347246611095,
-50,x,2,0,8,0,,,,,58.281604500021785,59.26485719997436,59.26485719997436,59.26485719997436,59.26485719997436,59.281483600032516,60.28194130002521,60.28194130002521,x,1,0.9866422000341117,284617,001,2022-10-05_11h15.34.665,Tutorial 4 Motor sequence learning,2022.2.2,60.145347246611095,
150,v,2,1,9,1,,,,,61.298117400030605,62.29845400003251,62.29845400003251,62.29845400003251,62.29845400003251,62.29845400003251,63.29787020001095,63.29787020001095,v,1,0.7238741000182927,284617,001,2022-10-05_11h15.34.665,Tutorial 4 Motor sequence learning,2022.2.2,60.145347246611095,
50,c,2,2,10,2,,,,,64.04820219997782,65.04829690000042,65.04829690000042,65.04829690000042,65.04829690000042,65.04829690000042,66.04815529996995,66.04815529996995,c,1,0.8811140999896452,284617,001,2022-10-05_11h15.34.665,Tutorial 4 Motor sequence learning,2022.2.2,60.145347246611095,
-150,z,2,3,11,3,,,,,66.94814670004416,67.94826189999003,67.94826189999003,67.94826189999003,67.94826189999003,67.94826189999003,68.94863460003398,68.94863460003398,z,1,0.6952503999928012,284617,001,2022-10-05_11h15.34.665,Tutorial 4 Motor sequence learning,2022.2.2,60.145347246611095,
-50,x,3,0,12,0,,,,,69.66516330000013,70.66568460001145,70.66568460001145,70.66568460001145,70.66568460001145,70.66568460001145,71.66501700005028,71.66501700005028,x,1,1.5003097000299022,284617,001,2022-10-05_11h15.34.665,Tutorial 4 Motor sequence learning,2022.2.2,60.145347246611095,
150,v,3,1,13,1,,,,,73.18202860001475,74.18183570005931,74.18183570005931,74.18183570005931,74.18183570005931,74.18183570005931,75.18236320000142,75.18236320000142,v,1,1.1662424000678584,284617,001,2022-10-05_11h15.34.665,Tutorial 4 Motor sequence learning,2022.2.2,60.145347246611095,
50,c,3,2,14,2,,,,,76.36496729997452,77.36517950007692,77.36517950007692,77.36517950007692,77.36517950007692,77.36517950007692,78.36554899998009,78.36554899998009,c,1,0.7245307998964563,284617,001,2022-10-05_11h15.34.665,Tutorial 4 Motor sequence learning,2022.2.2,60.145347246611095,
-150,z,3,3,15,3,,,,,79.11597060004715,80.11598580004647,80.11598580004647,80.11598580004647,80.11598580004647,80.11598580004647,81.11541590001434,81.11541590001434,z,1,0.8543216000543907,284617,001,2022-10-05_11h15.34.665,Tutorial 4 Motor sequence learning,2022.2.2,60.145347246611095,
-50,x,4,0,16,0,,,,,81.99886639998294,82.99902970006224,82.99902970006224,82.99902970006224,82.99902970006224,82.99902970006224,83.99894730001688,83.99894730001688,x,1,0.7014015999156982,284617,001,2022-10-05_11h15.34.665,Tutorial 4 Motor sequence learning,2022.2.2,60.145347246611095,
150,v,4,1,17,1,,,,,84.73262670007534,85.73236170003656,85.73236170003656,85.73236170003656,85.73236170003656,85.73236170003656,86.73224779998418,86.73224779998418,v,1,0.8538053999654949,284617,001,2022-10-05_11h15.34.665,Tutorial 4 Motor sequence learning,2022.2.2,60.145347246611095,
50,c,4,2,18,2,,,,,87.61548360006418,88.61614030005876,88.61614030005876,88.61614030005876,88.61614030005876,88.61614030005876,89.61649230006151,89.61649230006151,c,1,1.166006200015545,284617,001,2022-10-05_11h15.34.665,Tutorial 4 Motor sequence learning,2022.2.2,60.145347246611095,
-150,z,4,3,19,3,,,,,90.79911720007658,91.79930930002593,91.79930930002593,91.79930930002593,91.79930930002593,91.79930930002593,92.79940350004472,92.79940350004472,z,1,0.5753221000777557,284617,001,2022-10-05_11h15.34.665,Tutorial 4 Motor sequence learning,2022.2.2,60.145347246611095,
-50,x,5,0,20,0,,,,,93.3992199000204,94.39970860001631,94.39970860001631,94.39970860001631,94.39970860001631,94.39970860001631,95.39940970006865,95.39940970006865,x,1,0.5014854000182822,284617,001,2022-10-05_11h15.34.665,Tutorial 4 Motor sequence learning,2022.2.2,60.145347246611095,
150,v,5,1,21,1,,,,,95.93330829998013,96.93303199997172,96.93303199997172,96.93303199997172,96.93303199997172,96.93303199997172,97.93249979999382,97.93249979999382,v,1,0.7112429999979213,284617,001,2022-10-05_11h15.34.665,Tutorial 4 Motor sequence learning,2022.2.2,60.145347246611095,
50,c,5,2,22,2,,,,,98.66626069997437,99.66598859999795,99.66598859999795,99.66598859999795,99.66598859999795,99.66598859999795,100.66633859998547,100.66633859998547,c,1,0.529753900016658,284617,001,2022-10-05_11h15.34.665,Tutorial 4 Motor sequence learning,2022.2.2,60.145347246611095,
-150,z,5,3,23,3,,,,,101.21616439998616,102.21649789996445,102.21649789996445,102.21649789996445,102.21649789996445,102.21649789996445,103.21677950001322,103.21677950001322,z,1,0.5850024000974372,284617,001,2022-10-05_11h15.34.665,Tutorial 4 Motor sequence learning,2022.2.2,60.145347246611095,
-50,x,6,0,24,0,,,,,103.83306640002411,104.81638099998236,104.81638099998236,104.81638099998236,104.81638099998236,104.83324489998631,105.81638179998845,105.81638179998845,x,1,0.5185983999399468,284617,001,2022-10-05_11h15.34.665,Tutorial 4 Motor sequence learning,2022.2.2,60.145347246611095,
150,v,6,1,25,1,,,,,106.36650720005855,107.36664480005857,107.36664480005857,107.36664480005857,107.36664480005857,107.36664480005857,108.36625860002823,108.36625860002823,v,1,0.5809008999494836,284617,001,2022-10-05_11h15.34.665,Tutorial 4 Motor sequence learning,2022.2.2,60.145347246611095,
50,c,6,2,26,2,,,,,108.96673980006017,109.9657110000262,109.9657110000262,109.9657110000262,109.9657110000262,109.9657110000262,110.96570279996376,110.96570279996376,c,1,0.5225894999457523,284617,001,2022-10-05_11h15.34.665,Tutorial 4 Motor sequence learning,2022.2.2,60.145347246611095,
-150,z,6,3,27,3,,,,,111.51628880004864,112.51658749999478,112.51658749999478,112.51658749999478,112.51658749999478,112.51658749999478,113.51654630003031,113.51654630003031,z,1,0.6205850999103859,284617,001,2022-10-05_11h15.34.665,Tutorial 4 Motor sequence learning,2022.2.2,60.145347246611095,
-50,x,7,0,28,0,,,,,114.1669332999736,115.16664179996587,115.16664179996587,115.16664179996587,115.16664179996587,115.16664179996587,116.1664234000491,116.1664234000491,x,1,0.5169419000158086,284617,001,2022-10-05_11h15.34.665,Tutorial 4 Motor sequence learning,2022.2.2,60.145347246611095,
150,v,7,1,29,1,,,,,116.70033580006566,117.70021709997673,117.70021709997673,117.70021709997673,117.70021709997673,117.70021709997673,118.70013060001656,118.70013060001656,v,1,0.5561183999525383,284617,001,2022-10-05_11h15.34.665,Tutorial 4 Motor sequence learning,2022.2.2,60.145347246611095,
50,c,7,2,30,2,,,,,119.28342320001684,120.28357009997126,120.28357009997126,120.28357009997126,120.28357009997126,120.28357009997126,121.28356700006407,121.28356700006407,c,1,0.6973890999797732,284617,001,2022-10-05_11h15.34.665,Tutorial 4 Motor sequence learning,2022.2.2,60.145347246611095,
-150,z,7,3,31,3,,,,,122.00060909998138,123.00062359997537,123.00062359997537,123.00062359997537,123.00062359997537,123.00062359997537,124.00033179996535,124.00033179996535,z,1,0.5109231000533327,284617,001,2022-10-05_11h15.34.665,Tutorial 4 Motor sequence learning,2022.2.2,60.145347246611095,
-50,x,8,0,32,0,,,,,124.53388060000725,125.53403059998527,125.53403059998527,125.53403059998527,125.53403059998527,125.53403059998527,126.53415119997226,126.53415119997226,x,1,0.5624768999405205,284617,001,2022-10-05_11h15.34.665,Tutorial 4 Motor sequence learning,2022.2.2,60.145347246611095,
150,v,8,1,33,1,,,,,127.11784419999458,128.11713819997385,128.11713819997385,128.11713819997385,128.11713819997385,128.11713819997385,129.11706890002824,129.11706890002824,v,1,0.6642989000538364,284617,001,2022-10-05_11h15.34.665,Tutorial 4 Motor sequence learning,2022.2.2,60.145347246611095,
50,c,8,2,34,2,,,,,129.80056970007718,130.8007070000749,130.8007070000749,130.8007070000749,130.8007070000749,130.8007070000749,131.80079450004268,131.80079450004268,c,1,0.7991977999918163,284617,001,2022-10-05_11h15.34.665,Tutorial 4 Motor sequence learning,2022.2.2,60.145347246611095,
-150,z,8,3,35,3,,,,,132.61723440000787,133.60090319998562,133.60090319998562,133.60090319998562,133.60090319998562,133.61740780004766,134.61724769999273,134.61724769999273,z,1,0.5720788999460638,284617,001,2022-10-05_11h15.34.665,Tutorial 4 Motor sequence learning,2022.2.2,60.145347246611095,
-50,x,9,0,36,0,,,,,135.21756470005494,136.21763820003252,136.21763820003252,136.21763820003252,136.21763820003252,136.21763820003252,137.20063600002322,137.20063600002322,x,1,0.8821966999676079,284617,001,2022-10-05_11h15.34.665,Tutorial 4 Motor sequence learning,2022.2.2,60.145347246611095,
150,v,9,1,37,1,,,,,138.10107189998962,139.10060830006842,139.10060830006842,139.10060830006842,139.10060830006842,139.10060830006842,140.10089560004417,140.10089560004417,v,1,0.5971730999881402,284617,001,2022-10-05_11h15.34.665,Tutorial 4 Motor sequence learning,2022.2.2,60.145347246611095,
50,c,9,2,38,2,,,,,140.71742890006863,141.71797400002833,141.71797400002833,141.71797400002833,141.71797400002833,141.71797400002833,142.71778669999912,142.71778669999912,c,1,1.2490494000958279,284617,001,2022-10-05_11h15.34.665,Tutorial 4 Motor sequence learning,2022.2.2,60.145347246611095,
-150,z,9,3,39,3,,,,,143.98444839997683,144.98447680007666,144.98447680007666,144.98447680007666,144.98447680007666,144.98447680007666,145.98422059998848,145.98422059998848,z,1,0.6042479999596253,284617,001,2022-10-05_11h15.34.665,Tutorial 4 Motor sequence learning,2022.2.2,60.145347246611095,
-50,x,10,0,40,0,,,,,146.61755770002492,147.61804980004672,147.61804980004672,147.61804980004672,147.61804980004672,147.61804980004672,148.61768410005607,148.61768410005607,x,1,0.7236975999549031,284617,001,2022-10-05_11h15.34.665,Tutorial 4 Motor sequence learning,2022.2.2,60.145347246611095,
150,v,10,1,41,1,,,,,149.3678470000159,150.36796750000212,150.36796750000212,150.36796750000212,150.36796750000212,150.36796750000212,151.3682020000415,151.3682020000415,v,1,0.973363499972038,284617,001,2022-10-05_11h15.34.665,Tutorial 4 Motor sequence learning,2022.2.2,60.145347246611095,
50,c,10,2,42,2,,,,,152.36833640001714,153.36772119998932,153.36772119998932,153.36772119998932,153.36772119998932,153.36772119998932,154.3682522000745,154.3682522000745,c,1,0.7223560999846086,284617,001,2022-10-05_11h15.34.665,Tutorial 4 Motor sequence learning,2022.2.2,60.145347246611095,
-150,z,10,3,43,3,,,,,155.11791949998587,156.11848279996775,156.11848279996775,156.11848279996775,156.11848279996775,156.11848279996775,157.11794260004535,157.11794260004535,z,1,0.579946200014092,284617,001,2022-10-05_11h15.34.665,Tutorial 4 Motor sequence learning,2022.2.2,60.145347246611095,
-50,x,11,0,44,0,,,,,157.71818680001888,158.71788620005827,158.71788620005827,158.71788620005827,158.71788620005827,158.71788620005827,159.71828490006737,159.71828490006737,x,1,0.7463882999727502,284617,001,2022-10-05_11h15.34.665,Tutorial 4 Motor sequence learning,2022.2.2,60.145347246611095,
150,v,11,1,45,1,,,,,160.48505809996277,161.48522639996372,161.48522639996372,161.48522639996372,161.48522639996372,161.48522639996372,162.48473869997542,162.48473869997542,v,1,1.1367115000030026,284617,001,2022-10-05_11h15.34.665,Tutorial 4 Motor sequence learning,2022.2.2,60.145347246611095,
50,c,11,2,46,2,,,,,163.6519827999873,164.65186810004525,164.65186810004525,164.65186810004525,164.65186810004525,164.65186810004525,165.65184810000937,165.65184810000937,c,1,0.698851199937053,284617,001,2022-10-05_11h15.34.665,Tutorial 4 Motor sequence learning,2022.2.2,60.145347246611095,
-150,z,11,3,47,3,,,,,166.36852060002275,167.3685355000198,167.3685355000198,167.3685355000198,167.3685355000198,167.3685355000198,168.36869340005796,168.36869340005796,z,1,0.8561772999819368,284617,001,2022-10-05_11h15.34.665,Tutorial 4 Motor sequence learning,2022.2.2,60.145347246611095,
-50,x,12,0,48,0,,,,,169.25144889997318,170.25111339997966,170.25111339997966,170.25111339997966,170.25111339997966,170.25111339997966,171.23516859998927,171.23516859998927,x,1,0.5701685999520123,284617,001,2022-10-05_11h15.34.665,Tutorial 4 Motor sequence learning,2022.2.2,60.145347246611095,
150,v,12,1,49,1,,,,,171.83523620001506,172.83534029999282,172.83534029999282,172.83534029999282,172.83534029999282,172.83534029999282,173.8354638000019,173.8354638000019,v,1,0.7074153999565169,284617,001,2022-10-05_11h15.34.665,Tutorial 4 Motor sequence learning,2022.2.2,60.145347246611095,
50,c,12,2,50,2,,,,,174.56901169999037,175.55165749997832,175.55165749997832,175.55165749997832,175.55165749997832,175.56836420006584,176.56903530005366,176.56903530005366,c,1,0.5409379000775516,284617,001,2022-10-05_11h15.34.665,Tutorial 4 Motor sequence learning,2022.2.2,60.145347246611095,
-150,z,12,3,51,3,,,,,177.13573500001803,178.13538420002442,178.13538420002442,178.13538420002442,178.13538420002442,178.13538420002442,179.13545820000581,179.13545820000581,z,1,0.5678563999244943,284617,001,2022-10-05_11h15.34.665,Tutorial 4 Motor sequence learning,2022.2.2,60.145347246611095,
-50,x,13,0,52,0,,,,,179.73553479998372,180.73524269997142,180.73524269997142,180.73524269997142,180.73524269997142,180.73524269997142,181.73553439998068,181.73553439998068,x,1,0.5978087999392301,284617,001,2022-10-05_11h15.34.665,Tutorial 4 Motor sequence learning,2022.2.2,60.145347246611095,
150,v,13,1,53,1,,,,,182.35184959997423,183.35227260005195,183.35227260005195,183.35227260005195,183.35227260005195,183.35227260005195,184.35245420003776,184.35245420003776,v,1,0.8829568000510335,284617,001,2022-10-05_11h15.34.665,Tutorial 4 Motor sequence learning,2022.2.2,60.145347246611095,
50,c,13,2,54,2,,,,,185.25276750000194,186.25275770004373,186.25275770004373,186.25275770004373,186.25275770004373,186.25275770004373,187.2520327999955,187.2520327999955,c,1,0.8026112000225112,284617,001,2022-10-05_11h15.34.665,Tutorial 4 Motor sequence learning,2022.2.2,60.145347246611095,
-150,z,13,3,55,3,,,,,188.0857771000592,189.0861969999969,189.0861969999969,189.0861969999969,189.0861969999969,189.0861969999969,190.08615049999207,190.08615049999207,z,1,0.5491629999596626,284617,001,2022-10-05_11h15.34.665,Tutorial 4 Motor sequence learning,2022.2.2,60.145347246611095,
-50,x,14,0,56,0,,,,,190.6522672000574,191.65302800002974,191.65302800002974,191.65302800002974,191.65302800002974,191.65302800002974,192.6526412999956,192.6526412999956,x,1,0.6608105999184772,284617,001,2022-10-05_11h15.34.665,Tutorial 4 Motor sequence learning,2022.2.2,60.145347246611095,
150,v,14,1,57,1,,,,,193.3360048000468,194.31959309999365,194.31959309999365,194.31959309999365,194.31959309999365,194.33609360002447,195.31923550006468,195.31923550006468,v,1,1.1194981000153348,284617,001,2022-10-05_11h15.34.665,Tutorial 4 Motor sequence learning,2022.2.2,60.145347246611095,
50,c,14,2,58,2,,,,,196.46906969998963,197.469497699989,197.469497699989,197.469497699989,197.469497699989,197.469497699989,198.45263199997135,198.45263199997135,c,1,0.7812016999814659,284617,001,2022-10-05_11h15.34.665,Tutorial 4 Motor sequence learning,2022.2.2,60.145347246611095,
-150,z,14,3,59,3,,,,,199.25258920004126,200.25302689999808,200.25302689999808,200.25302689999808,200.25302689999808,200.25302689999808,201.2528547999682,201.2528547999682,z,1,0.55491379997693,284617,001,2022-10-05_11h15.34.665,Tutorial 4 Motor sequence learning,2022.2.2,60.145347246611095,
-50,x,15,0,60,0,,,,,201.83607570000459,202.8368833999848,202.8368833999848,202.8368833999848,202.8368833999848,202.8368833999848,203.83668399997987,203.83668399997987,x,1,0.6882480999920517,284617,001,2022-10-05_11h15.34.665,Tutorial 4 Motor sequence learning,2022.2.2,60.145347246611095,
150,v,15,1,61,1,,,,,204.55278849997558,205.55318709998392,205.55318709998392,205.55318709998392,205.55318709998392,205.55318709998392,206.53612860001158,206.53612860001158,v,1,0.8305869000032544,284617,001,2022-10-05_11h15.34.665,Tutorial 4 Motor sequence learning,2022.2.2,60.145347246611095,
50,c,15,2,62,2,,,,,207.38572350004688,208.38630020001438,208.38630020001438,208.38630020001438,208.38630020001438,208.38630020001438,209.37018450000323,209.37018450000323,c,1,0.763026800006628,284617,001,2022-10-05_11h15.34.665,Tutorial 4 Motor sequence learning,2022.2.2,60.145347246611095,
-150,z,15,3,63,3,,,,,210.15306669997517,211.15320020006038,211.15320020006038,211.15320020006038,211.15320020006038,211.15320020006038,212.1531249000691,212.1531249000691,z,1,0.7819073999999091,284617,001,2022-10-05_11h15.34.665,Tutorial 4 Motor sequence learning,2022.2.2,60.145347246611095,
-50,x,16,0,64,0,,,,,212.95338590000756,213.95383250003215,213.95383250003215,213.95383250003215,213.95383250003215,213.95383250003215,214.9534755999921,214.9534755999921,x,1,0.7720284999813884,284617,001,2022-10-05_11h15.34.665,Tutorial 4 Motor sequence learning,2022.2.2,60.145347246611095,
150,v,16,1,65,1,,,,,215.75382700003684,216.75295990006998,216.75295990006998,216.75295990006998,216.75295990006998,216.75295990006998,217.7536526999902,217.7536526999902,v,1,0.5190087000373751,284617,001,2022-10-05_11h15.34.665,Tutorial 4 Motor sequence learning,2022.2.2,60.145347246611095,
50,c,16,2,66,2,,,,,218.30325120000634,219.30369520001113,219.30369520001113,219.30369520001113,219.30369520001113,219.30369520001113,220.3034407000523,220.3034407000523,c,1,0.6497321000788361,284617,001,2022-10-05_11h15.34.665,Tutorial 4 Motor sequence learning,2022.2.2,60.145347246611095,
-150,z,16,3,67,3,,,,,220.9700950999977,221.97021589998621,221.97021589998621,221.97021589998621,221.97021589998621,221.97021589998621,222.9701663000742,222.9701663000742,z,1,0.676387200015597,284617,001,2022-10-05_11h15.34.665,Tutorial 4 Motor sequence learning,2022.2.2,60.145347246611095,
-50,x,17,0,68,0,,,,,223.67000010004267,224.67039350001141,224.67039350001141,224.67039350001141,224.67039350001141,224.67039350001141,225.67043639998883,225.67043639998883,x,1,0.9272085999837145,284617,001,2022-10-05_11h15.34.665,Tutorial 4 Motor sequence learning,2022.2.2,60.145347246611095,
150,v,17,1,69,1,,,,,226.6201251000166,227.62070900003891,227.62070900003891,227.62070900003891,227.62070900003891,227.62070900003891,228.62066800007597,228.62066800007597,v,1,0.9146978999488056,284617,001,2022-10-05_11h15.34.665,Tutorial 4 Motor sequence learning,2022.2.2,60.145347246611095,
50,c,17,2,70,2,,,,,229.55344829999376,230.55311820004135,230.55311820004135,230.55311820004135,230.55311820004135,230.55311820004135,231.55310040002223,231.55310040002223,c,1,0.8312972999410704,284617,001,2022-10-05_11h15.34.665,Tutorial 4 Motor sequence learning,2022.2.2,60.145347246611095,
-150,z,17,3,71,3,,,,,232.40421309997328,233.4040948000038,233.4040948000038,233.4040948000038,233.4040948000038,233.4040948000038,234.4041732000187,234.4041732000187,z,1,0.707103900029324,284617,001,2022-10-05_11h15.34.665,Tutorial 4 Motor sequence learning,2022.2.2,60.145347246611095,
-50,x,18,0,72,0,,,,,235.1370422000764,236.13736669998616,236.13736669998616,236.13736669998616,236.13736669998616,236.13736669998616,237.13752099999692,237.13752099999692,x,1,0.5707049000775442,284617,001,2022-10-05_11h15.34.665,Tutorial 4 Motor sequence learning,2022.2.2,60.145347246611095,
150,v,18,1,73,1,,,,,237.7376813000301,238.73715130006894,238.73715130006894,238.73715130006894,238.73715130006894,238.73715130006894,239.73764100007247,239.73764100007247,v,1,0.4841556999599561,284617,001,2022-10-05_11h15.34.665,Tutorial 4 Motor sequence learning,2022.2.2,60.145347246611095,
50,c,18,2,74,2,,,,,240.25393510004506,241.25394680001773,241.25394680001773,241.25394680001773,241.25394680001773,241.25394680001773,242.25390130002052,242.25390130002052,c,1,0.5547291000839323,284617,001,2022-10-05_11h15.34.665,Tutorial 4 Motor sequence learning,2022.2.2,60.145347246611095,
-150,z,18,3,75,3,,,,,242.83779630006757,243.8376331999898,243.8376331999898,243.8376331999898,243.8376331999898,243.8376331999898,244.83733640005812,244.83733640005812,z,1,0.5012608000542969,284617,001,2022-10-05_11h15.34.665,Tutorial 4 Motor sequence learning,2022.2.2,60.145347246611095,
-50,x,19,0,76,0,,,,,245.3710578000173,246.37110990006477,246.37110990006477,246.37110990006477,246.37110990006477,246.37110990006477,247.35413860005792,247.35413860005792,x,1,0.6089631000068039,284617,001,2022-10-05_11h15.34.665,Tutorial 4 Motor sequence learning,2022.2.2,60.145347246611095,
150,v,19,1,77,1,,,,,247.98794030002318,248.971326900064,248.971326900064,248.971326900064,248.971326900064,248.98768320004456,249.98783120000735,249.98783120000735,v,1,0.5552720999112353,284617,001,2022-10-05_11h15.34.665,Tutorial 4 Motor sequence learning,2022.2.2,60.145347246611095,
50,c,19,2,78,2,,,,,250.57110120006837,251.5715404000366,251.5715404000366,251.5715404000366,251.5715404000366,251.5715404000366,252.57137909997255,252.57137909997255,c,1,0.7019658000208437,284617,001,2022-10-05_11h15.34.665,Tutorial 4 Motor sequence learning,2022.2.2,60.145347246611095,
-150,z,19,3,79,3,,,,,253.30463709996548,254.30479309998918,254.30479309998918,254.30479309998918,254.30479309998918,254.30479309998918,255.3046187000582,255.3046187000582,z,1,0.5210247000213712,284617,001,2022-10-05_11h15.34.665,Tutorial 4 Motor sequence learning,2022.2.2,60.145347246611095,
-50,x,20,0,80,0,,,,,255.85421720007434,256.8546783999773,256.8546783999773,256.8546783999773,256.8546783999773,256.8546783999773,257.8547069999622,257.8547069999622,x,1,0.549352900008671,284617,001,2022-10-05_11h15.34.665,Tutorial 4 Motor sequence learning,2022.2.2,60.145347246611095,
150,v,20,1,81,1,,,,,258.42134240001906,259.4049822000088,259.4049822000088,259.4049822000088,259.4049822000088,259.42130439996254,260.4211193000665,260.4211193000665,v,1,0.613935999921523,284617,001,2022-10-05_11h15.34.665,Tutorial 4 Motor sequence learning,2022.2.2,60.145347246611095,
50,c,20,2,82,2,,,,,261.054887300008,262.0550596000394,262.0550596000394,262.0550596000394,262.0550596000394,262.0550596000394,263.05488820001483,263.05488820001483,c,1,0.7735341999214143,284617,001,2022-10-05_11h15.34.665,Tutorial 4 Motor sequence learning,2022.2.2,60.145347246611095,
-150,z,20,3,83,3,,,,,263.8552311999956,264.85491600004025,264.85491600004025,264.85491600004025,264.85491600004025,264.85491600004025,265.85512449999806,265.85512449999806,z,1,0.6534623999614269,284617,001,2022-10-05_11h15.34.665,Tutorial 4 Motor sequence learning,2022.2.2,60.145347246611095,
-50,x,21,0,84,0,,,,,266.53857910004444,267.53829060005955,267.53829060005955,267.53829060005955,267.53829060005955,267.53829060005955,268.53865390003193,268.53865390003193,x,1,1.1320089000510052,284617,001,2022-10-05_11h15.34.665,Tutorial 4 Motor sequence learning,2022.2.2,60.145347246611095,
150,v,21,1,85,1,,,,,269.68831440003123,270.6887648999691,270.6887648999691,270.6887648999691,270.6887648999691,270.6887648999691,271.6888572999742,271.6888572999742,v,1,0.8176302999490872,284617,001,2022-10-05_11h15.34.665,Tutorial 4 Motor sequence learning,2022.2.2,60.145347246611095,
50,c,21,2,86,2,,,,,272.5387590000173,273.53855449997354,273.53855449997354,273.53855449997354,273.53855449997354,273.53855449997354,274.53889630001504,274.53889630001504,c,1,0.4021745000500232,284617,001,2022-10-05_11h15.34.665,Tutorial 4 Motor sequence learning,2022.2.2,60.145347246611095,
-150,z,21,3,87,3,,,,,274.97186290007085,275.9719439999899,275.9719439999899,275.9719439999899,275.9719439999899,275.9719439999899,276.9723440000089,276.9723440000089,z,1,0.4805099000222981,284617,001,2022-10-05_11h15.34.665,Tutorial 4 Motor sequence learning,2022.2.2,60.145347246611095,
-50,x,22,0,88,0,,,,,277.4720242000185,278.4722610000754,278.4722610000754,278.4722610000754,278.4722610000754,278.4722610000754,279.47221240005456,279.47221240005456,x,1,0.557063200045377,284617,001,2022-10-05_11h15.34.665,Tutorial 4 Motor sequence learning,2022.2.2,60.145347246611095,
150,v,22,1,89,1,,,,,280.05553290003445,281.0558020999888,281.0558020999888,281.0558020999888,281.0558020999888,281.0558020999888,282.0557115999982,282.0557115999982,v,1,0.5667913999641314,284617,001,2022-10-05_11h15.34.665,Tutorial 4 Motor sequence learning,2022.2.2,60.145347246611095,
50,c,22,2,90,2,,,,,282.65551900002174,283.6555385000538,283.6555385000538,283.6555385000538,283.6555385000538,283.6555385000538,284.65602640004363,284.65602640004363,c,1,0.47946109995245934,284617,001,2022-10-05_11h15.34.665,Tutorial 4 Motor sequence learning,2022.2.2,60.145347246611095,
-150,z,22,3,91,3,,,,,285.15510269999504,286.1554080999922,286.1554080999922,286.1554080999922,286.1554080999922,286.1554080999922,287.1385335000232,287.1385335000232,z,1,0.4993326999247074,284617,001,2022-10-05_11h15.34.665,Tutorial 4 Motor sequence learning,2022.2.2,60.145347246611095,
-50,x,23,0,92,0,,,,,287.65521710005123,288.63925210002344,288.63925210002344,288.63925210002344,288.63925210002344,288.65603080007713,289.65579710004386,289.65579710004386,x,1,0.5939488000003621,284617,001,2022-10-05_11h15.34.665,Tutorial 4 Motor sequence learning,2022.2.2,60.145347246611095,
150,v,23,1,93,1,,,,,290.2726382999681,291.2720623000059,291.2720623000059,291.2720623000059,291.2720623000059,291.2720623000059,292.2727026999928,292.2727026999928,v,1,0.666430399985984,284617,001,2022-10-05_11h15.34.665,Tutorial 4 Motor sequence learning,2022.2.2,60.145347246611095,
50,c,23,2,94,2,,,,,292.95568780007306,293.956039300072,293.956039300072,293.956039300072,293.956039300072,293.956039300072,294.95587689999957,294.95587689999957,c,1,0.6420268999645486,284617,001,2022-10-05_11h15.34.665,Tutorial 4 Motor sequence learning,2022.2.2,60.145347246611095,
-150,z,23,3,95,3,,,,,295.6228961000452,296.6228044000454,296.6228044000454,296.6228044000454,296.6228044000454,296.6228044000454,297.62270680000074,297.62270680000074,z,1,0.5097355999751016,284617,001,2022-10-05_11h15.34.665,Tutorial 4 Motor sequence learning,2022.2.2,60.145347246611095,
50,c,,,,,0,0,0,2,298.16886229999363,299.139819300035,299.139819300035,299.139819300035,299.139819300035,299.17265079997014,300.13943970005494,300.13943970005494,c,1,1.1759227000875399,284617,001,2022-10-05_11h15.34.665,Tutorial 4 Motor sequence learning,2022.2.2,60.145347246611095,
-150,z,,,,,0,1,1,3,301.33889899996575,302.33983299997635,302.33983299997635,302.33983299997635,302.33983299997635,302.33983299997635,303.3393649000209,303.3393649000209,z,1,0.4265592999290675,284617,001,2022-10-05_11h15.34.665,Tutorial 4 Motor sequence learning,2022.2.2,60.145347246611095,
150,v,,,,,0,2,2,1,303.7908131000586,304.78958990005776,304.78958990005776,304.78958990005776,304.78958990005776,304.78958990005776,305.78968000004534,305.78968000004534,v,1,0.5914693000959232,284617,001,2022-10-05_11h15.34.665,Tutorial 4 Motor sequence learning,2022.2.2,60.145347246611095,
-150,z,,,,,0,3,3,3,306.4063742000144,307.40659550006967,307.40659550006967,307.40659550006967,307.40659550006967,307.40659550006967,308.4060541000217,308.4060541000217,z,1,0.34197790001053363,284617,001,2022-10-05_11h15.34.665,Tutorial 4 Motor sequence learning,2022.2.2,60.145347246611095,
50,c,,,,,1,0,4,2,308.77307230001315,309.77355050004553,309.77355050004553,309.77355050004553,309.77355050004553,309.77355050004553,310.7734773000702,310.7734773000702,c,1,0.5398522999603301,284617,001,2022-10-05_11h15.34.665,Tutorial 4 Motor sequence learning,2022.2.2,60.145347246611095,
50,c,,,,,1,1,5,2,311.33987080003135,312.3397590999957,312.3397590999957,312.3397590999957,312.3397590999957,312.3397590999957,313.3402755999705,313.3402755999705,c,1,0.4701138000236824,284617,001,2022-10-05_11h15.34.665,Tutorial 4 Motor sequence learning,2022.2.2,60.145347246611095,
-150,z,,,,,1,2,6,3,313.84008029999677,314.84009900002275,314.84009900002275,314.84009900002275,314.84009900002275,314.84009900002275,315.8232990000397,315.8232990000397,z,1,0.37091200007125735,284617,001,2022-10-05_11h15.34.665,Tutorial 4 Motor sequence learning,2022.2.2,60.145347246611095,
50,c,,,,,1,3,7,2,316.2233396000229,317.2228940000059,317.2228940000059,317.2228940000059,317.2228940000059,317.2228940000059,318.2234088999685,318.2234088999685,c,1,0.48356690001673996,284617,001,2022-10-05_11h15.34.665,Tutorial 4 Motor sequence learning,2022.2.2,60.145347246611095,
150,v,,,,,2,0,8,1,318.7236586000072,319.72358960006386,319.72358960006386,319.72358960006386,319.72358960006386,319.72358960006386,320.7239729000721,320.7239729000721,v,1,0.647016300004907,284617,001,2022-10-05_11h15.34.665,Tutorial 4 Motor sequence learning,2022.2.2,60.145347246611095,
50,c,,,,,2,1,9,2,321.39034390007146,322.38997000001837,322.38997000001837,322.38997000001837,322.38997000001837,322.38997000001837,323.39031519996934,323.39031519996934,c,1,0.5496957000577822,284617,001,2022-10-05_11h15.34.665,Tutorial 4 Motor sequence learning,2022.2.2,60.145347246611095,
-50,x,,,,,2,2,10,0,323.9570173000684,324.95705600001384,324.95705600001384,324.95705600001384,324.95705600001384,324.95705600001384,325.9568066999782,325.9568066999782,x,1,0.7755300999851897,284617,001,2022-10-05_11h15.34.665,Tutorial 4 Motor sequence learning,2022.2.2,60.145347246611095,
-150,z,,,,,2,3,11,3,326.75715239997953,327.7420987000223,327.7420987000223,327.7420987000223,327.7420987000223,327.7577833000105,328.75665740005206,328.75665740005206,z,1,0.41198490001261234,284617,001,2022-10-05_11h15.34.665,Tutorial 4 Motor sequence learning,2022.2.2,60.145347246611095,
50,c,,,,,3,0,12,2,329.19009409996215,330.1905623000348,330.1905623000348,330.1905623000348,330.1905623000348,330.1905623000348,331.1902123000473,331.1902123000473,c,1,1.3070715999929234,284617,001,2022-10-05_11h15.34.665,Tutorial 4 Motor sequence learning,2022.2.2,60.145347246611095,
-150,z,,,,,3,1,13,3,332.52389319997746,333.5240968000144,333.5240968000144,333.5240968000144,333.5240968000144,333.5240968000144,334.5236308000749,334.5236308000749,z,1,0.40204549999907613,284617,001,2022-10-05_11h15.34.665,Tutorial 4 Motor sequence learning,2022.2.2,60.145347246611095,
50,c,,,,,3,2,14,2,334.9574212000007,335.957255300018,335.957255300018,335.957255300018,335.957255300018,335.957255300018,336.9572396000149,336.9572396000149,c,1,1.1514132999582216,284617,001,2022-10-05_11h15.34.665,Tutorial 4 Motor sequence learning,2022.2.2,60.145347246611095,
50,c,,,,,3,3,15,2,338.1408732000273,339.1408231999958,339.1408231999958,339.1408231999958,339.1408231999958,339.1408231999958,340.14076229999773,340.14076229999773,c,1,0.5266704999376088,284617,001,2022-10-05_11h15.34.665,Tutorial 4 Motor sequence learning,2022.2.2,60.145347246611095,
150,v,,,,,4,0,16,1,340.69059750007,341.69090439996216,341.69090439996216,341.69090439996216,341.69090439996216,341.69090439996216,342.6908241000492,342.6908241000492,v,1,0.5906064000446349,284617,001,2022-10-05_11h15.34.665,Tutorial 4 Motor sequence learning,2022.2.2,60.145347246611095,
-150,z,,,,,4,1,17,3,343.3072901000269,344.3080267000478,344.3080267000478,344.3080267000478,344.3080267000478,344.3080267000478,345.30765940004494,345.30765940004494,z,1,0.8408590001054108,284617,001,2022-10-05_11h15.34.665,Tutorial 4 Motor sequence learning,2022.2.2,60.145347246611095,
-150,z,,,,,4,2,18,3,346.17386320000514,347.1747247000458,347.1747247000458,347.1747247000458,347.1747247000458,347.1747247000458,348.1578080999898,348.1578080999898,z,1,0.49367359990719706,284617,001,2022-10-05_11h15.34.665,Tutorial 4 Motor sequence learning,2022.2.2,60.145347246611095,
150,v,,,,,4,3,19,1,348.6744267999893,349.6745521000121,349.6745521000121,349.6745521000121,349.6745521000121,349.6745521000121,350.67362340004183,350.67362340004183,v,1,0.8284635000163689,284617,001,2022-10-05_11h15.34.665,Tutorial 4 Motor sequence learning,2022.2.2,60.145347246611095,
150,v,,,,,5,0,20,1,351.52378479996696,352.50781880004797,352.50781880004797,352.50781880004797,352.50781880004797,352.5251142999623,353.5075808999827,353.5075808999827,v,1,0.4432866999413818,284617,001,2022-10-05_11h15.34.665,Tutorial 4 Motor sequence learning,2022.2.2,60.145347246611095,
-50,x,,,,,5,1,21,0,353.9742083000019,354.97457920003217,354.97457920003217,354.97457920003217,354.97457920003217,354.97457920003217,355.9746397000272,355.9746397000272,x,1,1.1135660000145435,284617,001,2022-10-05_11h15.34.665,Tutorial 4 Motor sequence learning,2022.2.2,60.145347246611095,
150,v,,,,,5,2,22,1,357.107906499994,358.1081517999992,358.1081517999992,358.1081517999992,358.1081517999992,358.1081517999992,359.1076873000711,359.1076873000711,v,1,0.9354860000312328,284617,001,2022-10-05_11h15.34.665,Tutorial 4 Motor sequence learning,2022.2.2,60.145347246611095,
-50,x,,,,,5,3,23,0,360.0747773000039,361.0750312000746,361.0750312000746,361.0750312000746,361.0750312000746,361.0750312000746,362.0747394000646,362.0747394000646,x,1,0.7782515999861062,284617,001,2022-10-05_11h15.34.665,Tutorial 4 Motor sequence learning,2022.2.2,60.145347246611095,
150,v,,,,,6,0,24,1,362.8746341000078,363.87500300002284,363.87500300002284,363.87500300002284,363.87500300002284,363.87500300002284,364.8746938999975,364.8746938999975,v,1,0.7109429999254644,284617,001,2022-10-05_11h15.34.665,Tutorial 4 Motor sequence learning,2022.2.2,60.145347246611095,
-150,z,,,,,6,1,25,3,365.6082094999729,366.6085291999625,366.6085291999625,366.6085291999625,366.6085291999625,366.6085291999625,367.60820490005426,367.60820490005426,z,1,0.6757225999608636,284617,001,2022-10-05_11h15.34.665,Tutorial 4 Motor sequence learning,2022.2.2,60.145347246611095,
150,v,,,,,6,2,26,1,368.3083153000334,369.3081914000213,369.3081914000213,369.3081914000213,369.3081914000213,369.3081914000213,370.3087614000542,370.3087614000542,v,1,0.5237855999730527,284617,001,2022-10-05_11h15.34.665,Tutorial 4 Motor sequence learning,2022.2.2,60.145347246611095,
50,c,,,,,6,3,27,2,370.857838200056,371.8418024000712,371.8418024000712,371.8418024000712,371.8418024000712,371.85851539997384,372.8421972000506,372.8421972000506,c,1,1.080043000052683,284617,001,2022-10-05_11h15.34.665,Tutorial 4 Motor sequence learning,2022.2.2,60.145347246611095,
-50,x,,,,,7,0,28,0,373.9418084999779,374.9421710000606,374.9421710000606,374.9421710000606,374.9421710000606,374.9421710000606,375.9420645000646,375.9420645000646,x,1,1.2699767000740394,284617,001,2022-10-05_11h15.34.665,Tutorial 4 Motor sequence learning,2022.2.2,60.145347246611095,
-50,x,,,,,7,1,29,0,377.2420418000547,378.24208210001234,378.24208210001234,378.24208210001234,378.24208210001234,378.24208210001234,379.2252897999715,379.2252897999715,x,1,1.1857270000036806,284617,001,2022-10-05_11h15.34.665,Tutorial 4 Motor sequence learning,2022.2.2,60.145347246611095,
-150,z,,,,,7,2,30,3,380.44239500002004,381.4421423000749,381.4421423000749,381.4421423000749,381.4421423000749,381.4421423000749,382.4420432000188,382.4420432000188,z,1,0.5984431999968365,284617,001,2022-10-05_11h15.34.665,Tutorial 4 Motor sequence learning,2022.2.2,60.145347246611095,
50,c,,,,,7,3,31,2,383.05896290007513,384.0587831999874,384.0587831999874,384.0587831999874,384.0587831999874,384.0587831999874,385.059413400013,385.059413400013,c,1,1.9880400000838563,284617,001,2022-10-05_11h15.34.665,Tutorial 4 Motor sequence learning,2022.2.2,60.145347246611095,
50,c,,,,,8,0,32,2,387.0758966000285,388.07593809999526,388.07593809999526,388.07593809999526,388.07593809999526,388.07593809999526,389.0592262999853,389.0592262999853,c,1,0.5233489000238478,284617,001,2022-10-05_11h15.34.665,Tutorial 4 Motor sequence learning,2022.2.2,60.145347246611095,
-150,z,,,,,8,1,33,3,389.608571400051,390.5924157999689,390.5924157999689,390.5924157999689,390.5924157999689,390.60951169999316,391.592054800014,391.592054800014,z,1,1.155846199952066,284617,001,2022-10-05_11h15.34.665,Tutorial 4 Motor sequence learning,2022.2.2,60.145347246611095,
-150,z,,,,,8,2,34,3,392.77549320005346,393.77638659998775,393.77638659998775,393.77638659998775,393.77638659998775,393.77638659998775,394.75946690002456,394.75946690002456,z,1,0.7414001000579447,284617,001,2022-10-05_11h15.34.665,Tutorial 4 Motor sequence learning,2022.2.2,60.145347246611095,
-50,x,,,,,8,3,35,0,395.52604480006266,396.5260217000032,396.5260217000032,396.5260217000032,396.5260217000032,396.5260217000032,397.52586240007076,397.52586240007076,x,1,0.8449884000001475,284617,001,2022-10-05_11h15.34.665,Tutorial 4 Motor sequence learning,2022.2.2,60.145347246611095,
150,v,,,,,9,0,36,1,398.39256529998966,399.37623040005565,399.37623040005565,399.37623040005565,399.37623040005565,399.3928470000392,400.37595839996357,400.37595839996357,v,1,1.104803099995479,284617,001,2022-10-05_11h15.34.665,Tutorial 4 Motor sequence learning,2022.2.2,60.145347246611095,
-150,z,,,,,9,1,37,3,401.5094968000194,402.50949069997296,402.50949069997296,402.50949069997296,402.50949069997296,402.50949069997296,403.5100766000105,403.5100766000105,z,1,0.5253740000771359,284617,001,2022-10-05_11h15.34.665,Tutorial 4 Motor sequence learning,2022.2.2,60.145347246611095,
50,c,,,,,9,2,38,2,404.0593889000593,405.0602584000444,405.0602584000444,405.0602584000444,405.0602584000444,405.0602584000444,406.05941610003356,406.05941610003356,c,1,0.6290423999307677,284617,001,2022-10-05_11h15.34.665,Tutorial 4 Motor sequence learning,2022.2.2,60.145347246611095,
150,v,,,,,9,3,39,1,406.7096839000005,407.70982280001044,407.70982280001044,407.70982280001044,407.70982280001044,407.70982280001044,408.7098697000183,408.7098697000183,v,1,0.5774495000950992,284617,001,2022-10-05_11h15.34.665,Tutorial 4 Motor sequence learning,2022.2.2,60.145347246611095,
50,c,,,,,10,0,40,2,409.30985099996906,410.3090835000621,410.3090835000621,410.3090835000621,410.3090835000621,410.3090835000621,411.3089660999831,411.3089660999831,c,1,0.6167524999473244,284617,001,2022-10-05_11h15.34.665,Tutorial 4 Motor sequence learning,2022.2.2,60.145347246611095,
-50,x,,,,,10,1,41,0,411.94311290001497,412.926407400053,412.926407400053,412.926407400053,412.926407400053,412.9429857999785,413.92620180000085,413.92620180000085,x,1,0.6370588999707252,284617,001,2022-10-05_11h15.34.665,Tutorial 4 Motor sequence learning,2022.2.2,60.145347246611095,
150,v,,,,,10,2,42,1,414.593154400005,415.59336100006476,415.59336100006476,415.59336100006476,415.59336100006476,415.59336100006476,416.5935837000143,416.5935837000143,v,1,0.6046380000188947,284617,001,2022-10-05_11h15.34.665,Tutorial 4 Motor sequence learning,2022.2.2,60.145347246611095,
-150,z,,,,,10,3,43,3,417.226304300013,418.2266906000441,418.2266906000441,418.2266906000441,418.2266906000441,418.2266906000441,419.2267058000434,419.2267058000434,z,1,0.5861226000124589,284617,001,2022-10-05_11h15.34.665,Tutorial 4 Motor sequence learning,2022.2.2,60.145347246611095,
-50,x,,,,,11,0,44,0,419.8433601000579,420.82715879997704,420.82715879997704,420.82715879997704,420.82715879997704,420.84313880000263,421.8268006000435,421.8268006000435,x,1,0.609029300045222,284617,001,2022-10-05_11h15.34.665,Tutorial 4 Motor sequence learning,2022.2.2,60.145347246611095,
50,c,,,,,11,1,45,2,422.4600561000407,423.4604255000595,423.4604255000595,423.4604255000595,423.4604255000595,423.4604255000595,424.4435831999872,424.4435831999872,c,1,0.6687899000244215,284617,001,2022-10-05_11h15.34.665,Tutorial 4 Motor sequence learning,2022.2.2,60.145347246611095,
-50,x,,,,,11,2,46,0,425.14349390007555,426.1438886000542,426.1438886000542,426.1438886000542,426.1438886000542,426.1438886000542,427.14348560001235,427.14348560001235,x,1,1.0141942999325693,284617,001,2022-10-05_11h15.34.665,Tutorial 4 Motor sequence learning,2022.2.2,60.145347246611095,
150,v,,,,,11,3,47,1,428.17728820000775,429.17726779996883,429.17726779996883,429.17726779996883,429.17726779996883,429.17726779996883,430.17682900000364,430.17682900000364,v,1,0.5944543000077829,284617,001,2022-10-05_11h15.34.665,Tutorial 4 Motor sequence learning,2022.2.2,60.145347246611095,
50,c,,,,,12,0,48,2,430.7938630999997,431.79376879998017,431.79376879998017,431.79376879998017,431.79376879998017,431.79376879998017,432.7931393000763,432.7931393000763,c,1,0.7906652999809012,284617,001,2022-10-05_11h15.34.665,Tutorial 4 Motor sequence learning,2022.2.2,60.145347246611095,
50,c,,,,,12,1,49,2,433.61050990002695,434.6102827000432,434.6102827000432,434.6102827000432,434.6102827000432,434.6102827000432,435.5939603999723,435.5939603999723,c,1,0.6965184999862686,284617,001,2022-10-05_11h15.34.665,Tutorial 4 Motor sequence learning,2022.2.2,60.145347246611095,
50,c,,,,,12,2,50,2,436.3107886000071,437.31045540003106,437.31045540003106,437.31045540003106,437.31045540003106,437.31045540003106,438.31055369996466,438.31055369996466,c,1,0.41149069997482,284617,001,2022-10-05_11h15.34.665,Tutorial 4 Motor sequence learning,2022.2.2,60.145347246611095,
50,c,,,,,12,3,51,2,438.74373510002624,439.74430869997013,439.74430869997013,439.74430869997013,439.74430869997013,439.74430869997013,440.74445050000213,440.74445050000213,c,1,0.39697609993163496,284617,001,2022-10-05_11h15.34.665,Tutorial 4 Motor sequence learning,2022.2.2,60.145347246611095,
-50,x,,,,,13,0,52,0,441.16081460006535,442.16100990003906,442.16100990003906,442.16100990003906,442.16100990003906,442.16100990003906,443.16128110000864,443.16128110000864,x,1,0.7691861999919638,284617,001,2022-10-05_11h15.34.665,Tutorial 4 Motor sequence learning,2022.2.2,60.145347246611095,
150,v,,,,,13,1,53,1,443.96143030002713,444.96106800006237,444.96106800006237,444.96106800006237,444.96106800006237,444.96106800006237,445.9605905000353,445.9605905000353,v,1,0.6476934000384063,284617,001,2022-10-05_11h15.34.665,Tutorial 4 Motor sequence learning,2022.2.2,60.145347246611095,
150,v,,,,,13,2,54,1,446.62725779996254,447.62749810004607,447.62749810004607,447.62749810004607,447.62749810004607,447.62749810004607,448.62768719997257,448.62768719997257,v,1,0.6136507999617606,284617,001,2022-10-05_11h15.34.665,Tutorial 4 Motor sequence learning,2022.2.2,60.145347246611095,
50,c,,,,,13,3,55,2,449.26075490005314,450.26080559997354,450.26080559997354,450.26080559997354,450.26080559997354,450.26080559997354,451.2616072000237,451.2616072000237,c,1,0.7617950000567362,284617,001,2022-10-05_11h15.34.665,Tutorial 4 Motor sequence learning,2022.2.2,60.145347246611095,
-50,x,,,,,14,0,56,0,452.0445319999708,453.0447372000199,453.0447372000199,453.0447372000199,453.0447372000199,453.0447372000199,454.04450419999193,454.04450419999193,x,1,1.1782713000429794,284617,001,2022-10-05_11h15.34.665,Tutorial 4 Motor sequence learning,2022.2.2,60.145347246611095,
50,c,,,,,14,1,57,2,455.2441655000439,456.22743640001863,456.22743640001863,456.22743640001863,456.22743640001863,456.24470939999446,457.24415889999364,457.24415889999364,c,1,0.998157599940896,284617,001,2022-10-05_11h15.34.665,Tutorial 4 Motor sequence learning,2022.2.2,60.145347246611095,
-50,x,,,,,14,2,58,0,458.2609395000618,459.2612791999709,459.2612791999709,459.2612791999709,459.2612791999709,459.2612791999709,460.26171580003574,460.26171580003574,x,1,0.3690089000156149,284617,001,2022-10-05_11h15.34.665,Tutorial 4 Motor sequence learning,2022.2.2,60.145347246611095,
150,v,,,,,14,3,59,1,460.6613311000401,461.66119570005685,461.66119570005685,461.66119570005685,461.66119570005685,461.66119570005685,462.6612871000543,462.6612871000543,v,1,0.6471805000910535,284617,001,2022-10-05_11h15.34.665,Tutorial 4 Motor sequence learning,2022.2.2,60.145347246611095,
-50,x,,,,,15,0,60,0,463.3279767000349,464.31233900005464,464.31233900005464,464.31233900005464,464.31233900005464,464.3280908999732,465.3286581999855,465.3286581999855,x,1,0.3761704000644386,284617,001,2022-10-05_11h15.34.665,Tutorial 4 Motor sequence learning,2022.2.2,60.145347246611095,
150,v,,,,,15,1,61,1,465.74556219996884,466.7450821000384,466.7450821000384,466.7450821000384,466.7450821000384,466.7450821000384,467.7457254000474,467.7457254000474,v,1,0.8014732000883669,284617,001,2022-10-05_11h15.34.665,Tutorial 4 Motor sequence learning,2022.2.2,60.145347246611095,
-50,x,,,,,15,2,62,0,468.5782049000263,469.5784653000301,469.5784653000301,469.5784653000301,469.5784653000301,469.5784653000301,470.57936029997654,470.57936029997654,x,1,0.39446620002854615,284617,001,2022-10-05_11h15.34.665,Tutorial 4 Motor sequence learning,2022.2.2,60.145347246611095,
-50,x,,,,,15,3,63,0,470.99432060006075,471.99502480006777,471.99502480006777,471.99502480006777,471.99502480006777,471.99502480006777,472.99696320004296,472.99696320004296,x,1,0.4574923000764102,284617,001,2022-10-05_11h15.34.665,Tutorial 4 Motor sequence learning,2022.2.2,60.145347246611095,
-150,z,,,,,16,0,64,3,473.4784171000356,474.47818279999774,474.47818279999774,474.47818279999774,474.47818279999774,474.47818279999774,475.47895090002567,475.47895090002567,z,1,0.7528590000001714,284617,001,2022-10-05_11h15.34.665,Tutorial 4 Motor sequence learning,2022.2.2,60.145347246611095,
150,v,,,,,16,1,65,1,476.2613695000764,477.26178230007645,477.26178230007645,477.26178230007645,477.26178230007645,477.26178230007645,478.2619075999828,478.2619075999828,v,1,1.2745217999909073,284617,001,2022-10-05_11h15.34.665,Tutorial 4 Motor sequence learning,2022.2.2,60.145347246611095,
-150,z,,,,,16,2,66,3,479.56212680006865,480.5620865999954,480.5620865999954,480.5620865999954,480.5620865999954,480.5620865999954,481.5628674000036,481.5628674000036,z,1,0.5170743999769911,284617,001,2022-10-05_11h15.34.665,Tutorial 4 Motor sequence learning,2022.2.2,60.145347246611095,
150,v,,,,,16,3,67,1,482.111676700064,483.11186639999505,483.11186639999505,483.11186639999505,483.11186639999505,483.11186639999505,484.1126887999708,484.1126887999708,v,1,0.5938139000209048,284617,001,2022-10-05_11h15.34.665,Tutorial 4 Motor sequence learning,2022.2.2,60.145347246611095,
-50,x,,,,,17,0,68,0,484.7287863000529,485.72939280001447,485.72939280001447,485.72939280001447,485.72939280001447,485.72939280001447,486.7289720000699,486.7289720000699,x,1,0.694965299917385,284617,001,2022-10-05_11h15.34.665,Tutorial 4 Motor sequence learning,2022.2.2,60.145347246611095,
-150,z,,,,,17,1,69,3,487.44503890001215,488.44518120004795,488.44518120004795,488.44518120004795,488.44518120004795,488.44518120004795,489.4451289999997,489.4451289999997,z,1,0.6362712000263855,284617,001,2022-10-05_11h15.34.665,Tutorial 4 Motor sequence learning,2022.2.2,60.145347246611095,
50,c,,,,,17,2,70,2,490.1122505000094,491.11248500004876,491.11248500004876,491.11248500004876,491.11248500004876,491.11248500004876,492.11194169998635,492.11194169998635,c,1,1.19261769996956,284617,001,2022-10-05_11h15.34.665,Tutorial 4 Motor sequence learning,2022.2.2,60.145347246611095,
150,v,,,,,17,3,71,1,493.32881640002597,494.32832570001483,494.32832570001483,494.32832570001483,494.32832570001483,494.32832570001483,495.328426699969,495.328426699969,v,1,0.5616727999877185,284617,001,2022-10-05_11h15.34.665,Tutorial 4 Motor sequence learning,2022.2.2,60.145347246611095,
-50,x,,,,,18,0,72,0,495.91185390006285,496.9123343999963,496.9123343999963,496.9123343999963,496.9123343999963,496.9123343999963,497.9127586999675,497.9127586999675,x,1,0.5758411000715569,284617,001,2022-10-05_11h15.34.665,Tutorial 4 Motor sequence learning,2022.2.2,60.145347246611095,
-150,z,,,,,18,1,73,3,498.5123792999657,499.51272220001556,499.51272220001556,499.51272220001556,499.51272220001556,499.51272220001556,500.5122556000715,500.5122556000715,z,1,0.5780257999431342,284617,001,2022-10-05_11h15.34.665,Tutorial 4 Motor sequence learning,2022.2.2,60.145347246611095,
150,v,,,,,18,2,74,1,501.1119600000093,502.1124735000776,502.1124735000776,502.1124735000776,502.1124735000776,502.1124735000776,503.1120383000234,503.1120383000234,v,1,0.5336581999436021,284617,001,2022-10-05_11h15.34.665,Tutorial 4 Motor sequence learning,2022.2.2,60.145347246611095,
-50,x,,,,,18,3,75,0,503.66265489999205,504.662229700014,504.662229700014,504.662229700014,504.662229700014,504.662229700014,505.6628510999726,505.6628510999726,x,1,0.6065349000273272,284617,001,2022-10-05_11h15.34.665,Tutorial 4 Motor sequence learning,2022.2.2,60.145347246611095,
-50,x,,,,,19,0,76,0,506.296520599979,507.2958207000047,507.2958207000047,507.2958207000047,507.2958207000047,507.2958207000047,508.2963670999743,508.2963670999743,x,1,0.4900764999911189,284617,001,2022-10-05_11h15.34.665,Tutorial 4 Motor sequence learning,2022.2.2,60.145347246611095,
150,v,,,,,19,1,77,1,508.81250530004036,509.79666450002696,509.79666450002696,509.79666450002696,509.79666450002696,509.81268039997667,510.81266679998953,510.81266679998953,v,1,0.46561800001654774,284617,001,2022-10-05_11h15.34.665,Tutorial 4 Motor sequence learning,2022.2.2,60.145347246611095,
-150,z,,,,,19,2,78,3,511.2963775000535,512.2965095000109,512.2965095000109,512.2965095000109,512.2965095000109,512.2965095000109,513.2968089999631,513.2968089999631,z,1,0.5741846000310034,284617,001,2022-10-05_11h15.34.665,Tutorial 4 Motor sequence learning,2022.2.2,60.145347246611095,
-150,z,,,,,19,3,79,3,513.8967053999659,514.8830622000387,514.8830622000387,514.8830622000387,514.8830622000387,514.9004833999788,515.8968593999743,515.8968593999743,z,1,0.4179548999527469,284617,001,2022-10-05_11h15.34.665,Tutorial 4 Motor sequence learning,2022.2.2,60.145347246611095,
150,v,,,,,20,0,80,1,516.346118299989,517.3462956000585,517.3462956000585,517.3462956000585,517.3462956000585,517.3462956000585,518.3464561000001,518.3464561000001,v,1,0.4466549000935629,284617,001,2022-10-05_11h15.34.665,Tutorial 4 Motor sequence learning,2022.2.2,60.145347246611095,
-50,x,,,,,20,1,81,0,518.8133564000018,519.8132044000085,519.8132044000085,519.8132044000085,519.8132044000085,519.8132044000085,520.8132514000172,520.8132514000172,x,1,0.6393303999211639,284617,001,2022-10-05_11h15.34.665,Tutorial 4 Motor sequence learning,2022.2.2,60.145347246611095,
-150,z,,,,,20,2,82,3,521.4800715000601,522.4799884000095,522.4799884000095,522.4799884000095,522.4799884000095,522.4799884000095,523.480381899979,523.480381899979,z,1,0.5111415999708697,284617,001,2022-10-05_11h15.34.665,Tutorial 4 Motor sequence learning,2022.2.2,60.145347246611095,
150,v,,,,,20,3,83,1,524.0128018000396,524.996836300008,524.996836300008,524.996836300008,524.996836300008,525.0133987000445,526.0132919000462,526.0132919000462,v,1,0.6223728000186384,284617,001,2022-10-05_11h15.34.665,Tutorial 4 Motor sequence learning,2022.2.2,60.145347246611095,
-50,x,,,,,21,0,84,0,526.6632027999731,527.6631615000078,527.6631615000078,527.6631615000078,527.6631615000078,527.6631615000078,528.6634838000173,528.6634838000173,x,1,0.5814570999937132,284617,001,2022-10-05_11h15.34.665,Tutorial 4 Motor sequence learning,2022.2.2,60.145347246611095,
-150,z,,,,,21,1,85,3,529.2631351000164,530.2626080999617,530.2626080999617,530.2626080999617,530.2626080999617,530.2626080999617,531.2472145999782,531.2472145999782,z,1,0.5053116000490263,284617,001,2022-10-05_11h15.34.665,Tutorial 4 Motor sequence learning,2022.2.2,60.145347246611095,
50,c,,,,,21,2,86,2,531.779492200003,532.763534000027,532.763534000027,532.763534000027,532.763534000027,532.7803117000731,533.7634891000343,533.7634891000343,c,1,1.1505996999330819,284617,001,2022-10-05_11h15.34.665,Tutorial 4 Motor sequence learning,2022.2.2,60.145347246611095,
-50,x,,,,,21,3,87,0,534.9305316000246,535.9305682000704,535.9305682000704,535.9305682000704,535.9305682000704,535.9305682000704,536.9305082999635,536.9305082999635,x,1,1.1691148000536487,284617,001,2022-10-05_11h15.34.665,Tutorial 4 Motor sequence learning,2022.2.2,60.145347246611095,
-50,x,,,,,22,0,88,0,538.1300773000112,539.1137251000619,539.1137251000619,539.1137251000619,539.1137251000619,539.1304344000528,540.1139931000071,540.1139931000071,x,1,0.4995947000570595,284617,001,2022-10-05_11h15.34.665,Tutorial 4 Motor sequence learning,2022.2.2,60.145347246611095,
-150,z,,,,,22,1,89,3,540.6306120000081,541.6311064000474,541.6311064000474,541.6311064000474,541.6311064000474,541.6311064000474,542.6305979000172,542.6305979000172,z,1,0.5591711999149993,284617,001,2022-10-05_11h15.34.665,Tutorial 4 Motor sequence learning,2022.2.2,60.145347246611095,
-150,z,,,,,22,2,90,3,543.2139945999952,544.214559199987,544.214559199987,544.214559199987,544.214559199987,544.214559199987,545.2138939000433,545.2138939000433,z,1,0.3668551000300795,284617,001,2022-10-05_11h15.34.665,Tutorial 4 Motor sequence learning,2022.2.2,60.145347246611095,
150,v,,,,,22,3,91,1,545.6142315000761,546.6138974999776,546.6138974999776,546.6138974999776,546.6138974999776,546.6138974999776,547.6133265000535,547.6133265000535,v,1,0.5653766000177711,284617,001,2022-10-05_11h15.34.665,Tutorial 4 Motor sequence learning,2022.2.2,60.145347246611095,
-50,x,,,,,23,0,92,0,548.1965461999644,549.1968089999864,549.1968089999864,549.1968089999864,549.1968089999864,549.1968089999864,550.1970872000093,550.1970872000093,x,1,0.572846099967137,284617,001,2022-10-05_11h15.34.665,Tutorial 4 Motor sequence learning,2022.2.2,60.145347246611095,
-150,z,,,,,23,1,93,3,550.7975982000353,551.7972875999985,551.7972875999985,551.7972875999985,551.7972875999985,551.7972875999985,552.7974170000525,552.7974170000525,z,1,0.5826605000765994,284617,001,2022-10-05_11h15.34.665,Tutorial 4 Motor sequence learning,2022.2.2,60.145347246611095,
50,c,,,,,23,2,94,2,553.3979467999889,554.3975832000142,554.3975832000142,554.3975832000142,554.3975832000142,554.3975832000142,555.3975929999724,555.3975929999724,c,1,0.4922214000253007,284617,001,2022-10-05_11h15.34.665,Tutorial 4 Motor sequence learning,2022.2.2,60.145347246611095,
50,c,,,,,23,3,95,2,555.9146562999813,556.9144515000517,556.9144515000517,556.9144515000517,556.9144515000517,556.9144515000517,557.9144030000316,557.9144030000316,c,1,0.39178150007501245,284617,001,2022-10-05_11h15.34.665,Tutorial 4 Motor sequence learning,2022.2.2,60.145347246611095,
