delay,freq,condition,trials.thisRepN,trials.thisTrialN,trials.thisN,trials.thisIndex,polygon.started,polygon_2.started,key_resp.started,polygon.stopped,key_resp.keys,key_resp.rt,sound_1.started,sound_1.stopped,text.started,textbox.started,button.started,textbox.text,button.numClicks,button.timesOn,button.timesOff,participant,session,date,expName,psychopyVersion,frameRate,
0.4,400,unexp,0,0,0,1,33.011648000217974,33.85462980018929,33.85462980018929,34.02146070031449,space,0.3042761995457113,34.572310720290986,34.92319520004094,34.92319520004094,34.92319520004094,34.92319520004094,45,1,[2.5784627003595233],[2.578470000065863],431296,001,2022-11-10_09h59.35.602,Intentional Binding Task,2022.2.2,60.0634869878296,
0.1,1000,exp,0,1,1,9,37.453563699964434,38.43901610001922,38.43901610001922,38.456505600363016,space,1.5268273996189237,40.08941362025216,,40.41900310013443,40.41900310013443,40.41900310013443,88,2,"[2.5784627003595233, 1.9747254997491837]","[2.578470000065863, 1.9747342998161912]",431296,001,2022-11-10_09h59.35.602,Intentional Binding Task,2022.2.2,60.0634869878296,
0.4,1000,exp,0,2,2,10,42.370773900300264,43.35558219999075,43.35558219999075,43.37278169998899,space,0.5151785993948579,44.27199622029438,,44.570816500112414,44.570816500112414,44.570816500112414,35,3,"[2.5784627003595233, 1.9747254997491837, 1.6657448001205921]","[2.578470000065863, 1.9747342998161912, 1.6657530004158616]",431296,001,2022-11-10_09h59.35.602,Intentional Binding Task,2022.2.2,60.0634869878296,
0.4,1000,exp,0,3,3,7,46.23751900019124,47.22279050014913,47.22279050014913,47.23908590013161,space,1.036991199478507,48.6893633200787,,49.00455160019919,49.00455160019919,49.00455160019919,11,4,"[2.5784627003595233, 1.9747254997491837, 1.6657448001205921, 1.398560100235045]","[2.578470000065863, 1.9747342998161912, 1.6657530004158616, 1.3985688001848757]",431296,001,2022-11-10_09h59.35.602,Intentional Binding Task,2022.2.2,60.0634869878296,
0.1,400,unexp,0,4,4,0,50.40406600013375,51.40422490006313,51.40422490006313,51.40422490006313,space,0.22966739954426885,51.753819619957355,,52.05449100024998,52.05449100024998,52.05449100024998,77,5,"[2.5784627003595233, 1.9747254997491837, 1.6657448001205921, 1.398560100235045, 1.715775900054723]","[2.578470000065863, 1.9747342998161912, 1.6657530004158616, 1.3985688001848757, 1.715784799773246]",431296,001,2022-11-10_09h59.35.602,Intentional Binding Task,2022.2.2,60.0634869878296,
0.4,1000,exp,0,5,5,4,53.77119340002537,54.75584090035409,54.75584090035409,54.77329279994592,space,0.30196409951895475,55.47307652020827,,55.776114400010556,55.776114400010556,55.776114400010556,56,6,"[2.5784627003595233, 1.9747254997491837, 1.6657448001205921, 1.398560100235045, 1.715775900054723, 0.919919699896127]","[2.578470000065863, 1.9747342998161912, 1.6657530004158616, 1.3985688001848757, 1.715784799773246, 0.9199316999875009]",431296,001,2022-11-10_09h59.35.602,Intentional Binding Task,2022.2.2,60.0634869878296,
0.1,1000,exp,0,6,6,6,56.689688000362366,57.68793010013178,57.68793010013178,57.704748400021344,space,0.4520435994490981,58.25655902009457,,58.576597000006586,58.576597000006586,58.576597000006586,874,7,"[2.5784627003595233, 1.9747254997491837, 1.6657448001205921, 1.398560100235045, 1.715775900054723, 0.919919699896127, 1.8401504000648856]","[2.578470000065863, 1.9747342998161912, 1.6657530004158616, 1.3985688001848757, 1.715784799773246, 0.9199316999875009, 1.8401681003160775]",431296,001,2022-11-10_09h59.35.602,Intentional Binding Task,2022.2.2,60.0634869878296,
0.7,1000,exp,0,7,7,8,60.40469600027427,61.38798899995163,61.38798899995163,61.404675600118935,space,1.5367842996492982,63.656507620308545,,63.97571730008349,63.97571730008349,63.97571730008349,31,8,"[2.5784627003595233, 1.9747254997491837, 1.6657448001205921, 1.398560100235045, 1.715775900054723, 0.919919699896127, 1.8401504000648856, 1.3428099998272955]","[2.578470000065863, 1.9747342998161912, 1.6657530004158616, 1.3985688001848757, 1.715784799773246, 0.9199316999875009, 1.8401681003160775, 1.3428163002245128]",431296,001,2022-11-10_09h59.35.602,Intentional Binding Task,2022.2.2,60.0634869878296,
0.7,1000,exp,0,8,8,11,65.30445190006867,66.30493050022051,66.30493050022051,66.30493050022051,space,0.5046133995056152,67.53763002036139,67.8404423003085,67.8404423003085,67.8404423003085,67.8404423003085,78,9,"[2.5784627003595233, 1.9747254997491837, 1.6657448001205921, 1.398560100235045, 1.715775900054723, 0.919919699896127, 1.8401504000648856, 1.3428099998272955, 1.281333599705249]","[2.578470000065863, 1.9747342998161912, 1.6657530004158616, 1.3985688001848757, 1.715784799773246, 0.9199316999875009, 1.8401681003160775, 1.3428163002245128, 1.2813420998863876]",431296,001,2022-11-10_09h59.35.602,Intentional Binding Task,2022.2.2,60.0634869878296,
0.7,400,unexp,0,9,9,2,69.12109860032797,70.1211073002778,70.1211073002778,70.1211073002778,space,0.47457379940897226,71.32198312012478,,71.62712660012767,71.62712660012767,71.62712660012767,456,10,"[2.5784627003595233, 1.9747254997491837, 1.6657448001205921, 1.398560100235045, 1.715775900054723, 0.919919699896127, 1.8401504000648856, 1.3428099998272955, 1.281333599705249, 2.2801421997137368]","[2.578470000065863, 1.9747342998161912, 1.6657530004158616, 1.3985688001848757, 1.715784799773246, 0.9199316999875009, 1.8401681003160775, 1.3428163002245128, 1.2813420998863876, 2.2801496000029147]",431296,001,2022-11-10_09h59.35.602,Intentional Binding Task,2022.2.2,60.0634869878296,
0.1,1000,exp,0,10,10,3,73.9048181003891,74.90490390034392,74.90490390034392,74.90490390034392,space,0.9673094996251166,75.98898952007293,,76.29275850020349,76.29275850020349,76.29275850020349,10,11,"[2.5784627003595233, 1.9747254997491837, 1.6657448001205921, 1.398560100235045, 1.715775900054723, 0.919919699896127, 1.8401504000648856, 1.3428099998272955, 1.281333599705249, 2.2801421997137368, 1.4480629996396601]","[2.578470000065863, 1.9747342998161912, 1.6657530004158616, 1.3985688001848757, 1.715784799773246, 0.9199316999875009, 1.8401681003160775, 1.3428163002245128, 1.2813420998863876, 2.2801496000029147, 1.4480713000521064]",431296,001,2022-11-10_09h59.35.602,Intentional Binding Task,2022.2.2,60.0634869878296,
0.7,1000,exp,0,11,11,5,77.73822530033067,78.72290470032021,78.72290470032021,78.73999510006979,space,0.32923399936407804,79.75710762031376,,80.07295760000125,80.07295760000125,80.07295760000125,951,12,"[2.5784627003595233, 1.9747254997491837, 1.6657448001205921, 1.398560100235045, 1.715775900054723, 0.919919699896127, 1.8401504000648856, 1.3428099998272955, 1.281333599705249, 2.2801421997137368, 1.4480629996396601, 1.498726099729538]","[2.578470000065863, 1.9747342998161912, 1.6657530004158616, 1.3985688001848757, 1.715784799773246, 0.9199316999875009, 1.8401681003160775, 1.3428163002245128, 1.2813420998863876, 2.2801496000029147, 1.4480713000521064, 1.4987355000339448]",431296,001,2022-11-10_09h59.35.602,Intentional Binding Task,2022.2.2,60.0634869878296,
0.4,1000,exp,1,0,12,10,81.57181270001456,82.57229189993814,82.57229189993814,82.57229189993814,space,0.6065484997816384,83.60691472021863,,83.9244624003768,83.9244624003768,83.9244624003768,561,13,"[2.5784627003595233, 1.9747254997491837, 1.6657448001205921, 1.398560100235045, 1.715775900054723, 0.919919699896127, 1.8401504000648856, 1.3428099998272955, 1.281333599705249, 2.2801421997137368, 1.4480629996396601, 1.498726099729538, 1.527417200151831]","[2.578470000065863, 1.9747342998161912, 1.6657530004158616, 1.3985688001848757, 1.715784799773246, 0.9199316999875009, 1.8401681003160775, 1.3428163002245128, 1.2813420998863876, 2.2801496000029147, 1.4480713000521064, 1.4987355000339448, 1.5274348999373615]",431296,001,2022-11-10_09h59.35.602,Intentional Binding Task,2022.2.2,60.0634869878296,
0.7,1000,exp,1,1,13,8,85.44075910001993,86.44018130004406,86.44018130004406,86.44018130004406,space,0.34739919984713197,87.50590292010456,87.82186040002853,87.82186040002853,87.82186040002853,87.82186040002853,113,14,"[2.5784627003595233, 1.9747254997491837, 1.6657448001205921, 1.398560100235045, 1.715775900054723, 0.919919699896127, 1.8401504000648856, 1.3428099998272955, 1.281333599705249, 2.2801421997137368, 1.4480629996396601, 1.498726099729538, 1.527417200151831, 1.8122852998785675]","[2.578470000065863, 1.9747342998161912, 1.6657530004158616, 1.3985688001848757, 1.715784799773246, 0.9199316999875009, 1.8401681003160775, 1.3428163002245128, 1.2813420998863876, 2.2801496000029147, 1.4480713000521064, 1.4987355000339448, 1.5274348999373615, 1.8122922000475228]",431296,001,2022-11-10_09h59.35.602,Intentional Binding Task,2022.2.2,60.0634869878296,
0.1,1000,exp,1,2,14,6,89.62179400026798,90.60673260036856,90.60673260036856,90.62318400014192,space,0.8004294000566006,91.5390640201047,,91.84125250019133,91.84125250019133,91.84125250019133,843,15,"[2.5784627003595233, 1.9747254997491837, 1.6657448001205921, 1.398560100235045, 1.715775900054723, 0.919919699896127, 1.8401504000648856, 1.3428099998272955, 1.281333599705249, 2.2801421997137368, 1.4480629996396601, 1.498726099729538, 1.527417200151831, 1.8122852998785675, 2.7830648999661207]","[2.578470000065863, 1.9747342998161912, 1.6657530004158616, 1.3985688001848757, 1.715784799773246, 0.9199316999875009, 1.8401681003160775, 1.3428163002245128, 1.2813420998863876, 2.2801496000029147, 1.4480713000521064, 1.4987355000339448, 1.5274348999373615, 1.8122922000475228, 2.783074200153351]",431296,001,2022-11-10_09h59.35.602,Intentional Binding Task,2022.2.2,60.0634869878296,
0.7,400,unexp,1,3,15,2,94.62153310002759,95.6230966001749,95.6230966001749,95.6230966001749,space,0.31531009962782264,96.6565089199692,,96.95603629993275,96.95603629993275,96.95603629993275,026,16,"[2.5784627003595233, 1.9747254997491837, 1.6657448001205921, 1.398560100235045, 1.715775900054723, 0.919919699896127, 1.8401504000648856, 1.3428099998272955, 1.281333599705249, 2.2801421997137368, 1.4480629996396601, 1.498726099729538, 1.527417200151831, 1.8122852998785675, 2.7830648999661207, 1.7982993996702135]","[2.578470000065863, 1.9747342998161912, 1.6657530004158616, 1.3985688001848757, 1.715784799773246, 0.9199316999875009, 1.8401681003160775, 1.3428163002245128, 1.2813420998863876, 2.2801496000029147, 1.4480713000521064, 1.4987355000339448, 1.5274348999373615, 1.8122922000475228, 2.783074200153351, 1.7983086998574436]",431296,001,2022-11-10_09h59.35.602,Intentional Binding Task,2022.2.2,60.0634869878296,
0.1,400,unexp,1,4,16,0,98.75554689997807,99.74049710016698,99.74049710016698,99.75709260022268,space,0.5817474997602403,100.44069042028859,100.75666780024767,100.75666780024767,100.75666780024767,100.75666780024767,351,17,"[2.5784627003595233, 1.9747254997491837, 1.6657448001205921, 1.398560100235045, 1.715775900054723, 0.919919699896127, 1.8401504000648856, 1.3428099998272955, 1.281333599705249, 2.2801421997137368, 1.4480629996396601, 1.498726099729538, 1.527417200151831, 1.8122852998785675, 2.7830648999661207, 1.7982993996702135, 1.9450487000867724]","[2.578470000065863, 1.9747342998161912, 1.6657530004158616, 1.3985688001848757, 1.715784799773246, 0.9199316999875009, 1.8401681003160775, 1.3428163002245128, 1.2813420998863876, 2.2801496000029147, 1.4480713000521064, 1.4987355000339448, 1.5274348999373615, 1.8122922000475228, 2.783074200153351, 1.7983086998574436, 1.9450564002618194]",431296,001,2022-11-10_09h59.35.602,Intentional Binding Task,2022.2.2,60.0634869878296,
0.7,1000,exp,1,5,17,11,102.68895300012082,103.68878680001944,103.68878680001944,103.68878680001944,space,1.4322346998378634,105.83856432018801,106.13881090003997,106.13881090003997,106.13881090003997,106.13881090003997,371,18,"[2.5784627003595233, 1.9747254997491837, 1.6657448001205921, 1.398560100235045, 1.715775900054723, 0.919919699896127, 1.8401504000648856, 1.3428099998272955, 1.281333599705249, 2.2801421997137368, 1.4480629996396601, 1.498726099729538, 1.527417200151831, 1.8122852998785675, 2.7830648999661207, 1.7982993996702135, 1.9450487000867724, 6.315618200227618]","[2.578470000065863, 1.9747342998161912, 1.6657530004158616, 1.3985688001848757, 1.715784799773246, 0.9199316999875009, 1.8401681003160775, 1.3428163002245128, 1.2813420998863876, 2.2801496000029147, 1.4480713000521064, 1.4987355000339448, 1.5274348999373615, 1.8122922000475228, 2.783074200153351, 1.7983086998574436, 1.9450564002618194, 6.315624400041997]",431296,001,2022-11-10_09h59.35.602,Intentional Binding Task,2022.2.2,60.0634869878296,
0.4,1000,exp,1,6,18,7,112.45572230033576,113.44194350019097,113.44194350019097,113.45967150013894,space,0.6735187997110188,114.52449492011219,,114.84489460010082,114.84489460010082,114.84489460010082,213,19,"[2.5784627003595233, 1.9747254997491837, 1.6657448001205921, 1.398560100235045, 1.715775900054723, 0.919919699896127, 1.8401504000648856, 1.3428099998272955, 1.281333599705249, 2.2801421997137368, 1.4480629996396601, 1.498726099729538, 1.527417200151831, 1.8122852998785675, 2.7830648999661207, 1.7982993996702135, 1.9450487000867724, 6.315618200227618, 2.1476153996773064]","[2.578470000065863, 1.9747342998161912, 1.6657530004158616, 1.3985688001848757, 1.715784799773246, 0.9199316999875009, 1.8401681003160775, 1.3428163002245128, 1.2813420998863876, 2.2801496000029147, 1.4480713000521064, 1.4987355000339448, 1.5274348999373615, 1.8122922000475228, 2.783074200153351, 1.7983086998574436, 1.9450564002618194, 6.315624400041997, 2.1476245000958443]",431296,001,2022-11-10_09h59.35.602,Intentional Binding Task,2022.2.2,60.0634869878296,
0.1,1000,exp,1,7,19,3,116.98920850036666,117.97604220034555,117.97604220034555,117.9940936001949,space,0.6233138996176422,118.72199472011998,,119.0426666000858,119.0426666000858,119.0426666000858,053,20,"[2.5784627003595233, 1.9747254997491837, 1.6657448001205921, 1.398560100235045, 1.715775900054723, 0.919919699896127, 1.8401504000648856, 1.3428099998272955, 1.281333599705249, 2.2801421997137368, 1.4480629996396601, 1.498726099729538, 1.527417200151831, 1.8122852998785675, 2.7830648999661207, 1.7982993996702135, 1.9450487000867724, 6.315618200227618, 2.1476153996773064, 2.364063199609518]","[2.578470000065863, 1.9747342998161912, 1.6657530004158616, 1.3985688001848757, 1.715784799773246, 0.9199316999875009, 1.8401681003160775, 1.3428163002245128, 1.2813420998863876, 2.2801496000029147, 1.4480713000521064, 1.4987355000339448, 1.5274348999373615, 1.8122922000475228, 2.783074200153351, 1.7983086998574436, 1.9450564002618194, 6.315624400041997, 2.1476245000958443, 2.3640749999321997]",431296,001,2022-11-10_09h59.35.602,Intentional Binding Task,2022.2.2,60.0634869878296,
0.7,1000,exp,1,8,20,5,121.38931730017066,122.39117540000007,122.39117540000007,122.39117540000007,space,1.3354863999411464,124.44162542019039,,124.74318800028414,124.74318800028414,124.74318800028414,94,21,"[2.5784627003595233, 1.9747254997491837, 1.6657448001205921, 1.398560100235045, 1.715775900054723, 0.919919699896127, 1.8401504000648856, 1.3428099998272955, 1.281333599705249, 2.2801421997137368, 1.4480629996396601, 1.498726099729538, 1.527417200151831, 1.8122852998785675, 2.7830648999661207, 1.7982993996702135, 1.9450487000867724, 6.315618200227618, 2.1476153996773064, 2.364063199609518, 3.431335300207138]","[2.578470000065863, 1.9747342998161912, 1.6657530004158616, 1.3985688001848757, 1.715784799773246, 0.9199316999875009, 1.8401681003160775, 1.3428163002245128, 1.2813420998863876, 2.2801496000029147, 1.4480713000521064, 1.4987355000339448, 1.5274348999373615, 1.8122922000475228, 2.783074200153351, 1.7983086998574436, 1.9450564002618194, 6.315624400041997, 2.1476245000958443, 2.3640749999321997, 3.4313411000184715]",431296,001,2022-11-10_09h59.35.602,Intentional Binding Task,2022.2.2,60.0634869878296,
0.1,1000,exp,1,9,21,9,128.17286480031908,129.15663890028372,129.15663890028372,129.1726741003804,space,0.581645299680531,129.85853742035107,,130.16394879994914,130.16394879994914,130.16394879994914,30,22,"[2.5784627003595233, 1.9747254997491837, 1.6657448001205921, 1.398560100235045, 1.715775900054723, 0.919919699896127, 1.8401504000648856, 1.3428099998272955, 1.281333599705249, 2.2801421997137368, 1.4480629996396601, 1.498726099729538, 1.527417200151831, 1.8122852998785675, 2.7830648999661207, 1.7982993996702135, 1.9450487000867724, 6.315618200227618, 2.1476153996773064, 2.364063199609518, 3.431335300207138, 2.930376600008458]","[2.578470000065863, 1.9747342998161912, 1.6657530004158616, 1.3985688001848757, 1.715784799773246, 0.9199316999875009, 1.8401681003160775, 1.3428163002245128, 1.2813420998863876, 2.2801496000029147, 1.4480713000521064, 1.4987355000339448, 1.5274348999373615, 1.8122922000475228, 2.783074200153351, 1.7983086998574436, 1.9450564002618194, 6.315624400041997, 2.1476245000958443, 2.3640749999321997, 3.4313411000184715, 2.9303840999491513]",431296,001,2022-11-10_09h59.35.602,Intentional Binding Task,2022.2.2,60.0634869878296,
0.4,1000,exp,1,10,22,4,133.0900145000778,134.07365070004016,134.07365070004016,134.09049080032855,space,0.9308388996869326,135.42373052025215,135.74620870035142,135.74620870035142,135.74620870035142,135.74620870035142,498,23,"[2.5784627003595233, 1.9747254997491837, 1.6657448001205921, 1.398560100235045, 1.715775900054723, 0.919919699896127, 1.8401504000648856, 1.3428099998272955, 1.281333599705249, 2.2801421997137368, 1.4480629996396601, 1.498726099729538, 1.527417200151831, 1.8122852998785675, 2.7830648999661207, 1.7982993996702135, 1.9450487000867724, 6.315618200227618, 2.1476153996773064, 2.364063199609518, 3.431335300207138, 2.930376600008458, 3.661416399758309]","[2.578470000065863, 1.9747342998161912, 1.6657530004158616, 1.3985688001848757, 1.715784799773246, 0.9199316999875009, 1.8401681003160775, 1.3428163002245128, 1.2813420998863876, 2.2801496000029147, 1.4480713000521064, 1.4987355000339448, 1.5274348999373615, 1.8122922000475228, 2.783074200153351, 1.7983086998574436, 1.9450564002618194, 6.315624400041997, 2.1476245000958443, 2.3640749999321997, 3.4313411000184715, 2.9303840999491513, 3.6614234000444412]",431296,001,2022-11-10_09h59.35.602,Intentional Binding Task,2022.2.2,60.0634869878296,
0.4,400,unexp,1,11,23,1,139.38998869992793,140.3901317003183,140.3901317003183,140.3901317003183,space,2.0268410998396575,142.84140682006256,,143.15899959998205,143.15899959998205,143.15899959998205,14,24,"[2.5784627003595233, 1.9747254997491837, 1.6657448001205921, 1.398560100235045, 1.715775900054723, 0.919919699896127, 1.8401504000648856, 1.3428099998272955, 1.281333599705249, 2.2801421997137368, 1.4480629996396601, 1.498726099729538, 1.527417200151831, 1.8122852998785675, 2.7830648999661207, 1.7982993996702135, 1.9450487000867724, 6.315618200227618, 2.1476153996773064, 2.364063199609518, 3.431335300207138, 2.930376600008458, 3.661416399758309, 2.3404001998715103]","[2.578470000065863, 1.9747342998161912, 1.6657530004158616, 1.3985688001848757, 1.715784799773246, 0.9199316999875009, 1.8401681003160775, 1.3428163002245128, 1.2813420998863876, 2.2801496000029147, 1.4480713000521064, 1.4987355000339448, 1.5274348999373615, 1.8122922000475228, 2.783074200153351, 1.7983086998574436, 1.9450564002618194, 6.315624400041997, 2.1476245000958443, 2.3640749999321997, 3.4313411000184715, 2.9303840999491513, 3.6614234000444412, 2.3404350001364946]",431296,001,2022-11-10_09h59.35.602,Intentional Binding Task,2022.2.2,60.0634869878296,
0.7,1000,exp,2,0,24,8,145.49035050021484,146.47689280007035,146.47689280007035,146.49182090023533,space,1.0970492996275425,148.29175882013516,,148.59704590030015,148.59704590030015,148.59704590030015,38,25,"[2.5784627003595233, 1.9747254997491837, 1.6657448001205921, 1.398560100235045, 1.715775900054723, 0.919919699896127, 1.8401504000648856, 1.3428099998272955, 1.281333599705249, 2.2801421997137368, 1.4480629996396601, 1.498726099729538, 1.527417200151831, 1.8122852998785675, 2.7830648999661207, 1.7982993996702135, 1.9450487000867724, 6.315618200227618, 2.1476153996773064, 2.364063199609518, 3.431335300207138, 2.930376600008458, 3.661416399758309, 2.3404001998715103, 2.613333700224757]","[2.578470000065863, 1.9747342998161912, 1.6657530004158616, 1.3985688001848757, 1.715784799773246, 0.9199316999875009, 1.8401681003160775, 1.3428163002245128, 1.2813420998863876, 2.2801496000029147, 1.4480713000521064, 1.4987355000339448, 1.5274348999373615, 1.8122922000475228, 2.783074200153351, 1.7983086998574436, 1.9450564002618194, 6.315624400041997, 2.1476245000958443, 2.3640749999321997, 3.4313411000184715, 2.9303840999491513, 3.6614234000444412, 2.3404350001364946, 2.613343100063503]",431296,001,2022-11-10_09h59.35.602,Intentional Binding Task,2022.2.2,60.0634869878296,
0.1,1000,exp,2,1,25,9,151.20660950010642,152.19187400024384,152.19187400024384,152.20877650007606,space,0.8459648992866278,153.15753621999175,,153.4738472001627,153.4738472001627,153.4738472001627,094,26,"[2.5784627003595233, 1.9747254997491837, 1.6657448001205921, 1.398560100235045, 1.715775900054723, 0.919919699896127, 1.8401504000648856, 1.3428099998272955, 1.281333599705249, 2.2801421997137368, 1.4480629996396601, 1.498726099729538, 1.527417200151831, 1.8122852998785675, 2.7830648999661207, 1.7982993996702135, 1.9450487000867724, 6.315618200227618, 2.1476153996773064, 2.364063199609518, 3.431335300207138, 2.930376600008458, 3.661416399758309, 2.3404001998715103, 2.613333700224757, 2.551168399862945]","[2.578470000065863, 1.9747342998161912, 1.6657530004158616, 1.3985688001848757, 1.715784799773246, 0.9199316999875009, 1.8401681003160775, 1.3428163002245128, 1.2813420998863876, 2.2801496000029147, 1.4480713000521064, 1.4987355000339448, 1.5274348999373615, 1.8122922000475228, 2.783074200153351, 1.7983086998574436, 1.9450564002618194, 6.315624400041997, 2.1476245000958443, 2.3640749999321997, 3.4313411000184715, 2.9303840999491513, 3.6614234000444412, 2.3404350001364946, 2.613343100063503, 2.5511847999878228]",431296,001,2022-11-10_09h59.35.602,Intentional Binding Task,2022.2.2,60.0634869878296,
0.4,1000,exp,2,2,26,7,156.01074890000746,157.00953150028363,157.00953150028363,157.00953150028363,space,0.8586042998358607,158.29115172028543,,158.60905000008643,158.60905000008643,158.60905000008643,107,27,"[2.5784627003595233, 1.9747254997491837, 1.6657448001205921, 1.398560100235045, 1.715775900054723, 0.919919699896127, 1.8401504000648856, 1.3428099998272955, 1.281333599705249, 2.2801421997137368, 1.4480629996396601, 1.498726099729538, 1.527417200151831, 1.8122852998785675, 2.7830648999661207, 1.7982993996702135, 1.9450487000867724, 6.315618200227618, 2.1476153996773064, 2.364063199609518, 3.431335300207138, 2.930376600008458, 3.661416399758309, 2.3404001998715103, 2.613333700224757, 2.551168399862945, 2.995882600080222]","[2.578470000065863, 1.9747342998161912, 1.6657530004158616, 1.3985688001848757, 1.715784799773246, 0.9199316999875009, 1.8401681003160775, 1.3428163002245128, 1.2813420998863876, 2.2801496000029147, 1.4480713000521064, 1.4987355000339448, 1.5274348999373615, 1.8122922000475228, 2.783074200153351, 1.7983086998574436, 1.9450564002618194, 6.315624400041997, 2.1476245000958443, 2.3640749999321997, 3.4313411000184715, 2.9303840999491513, 3.6614234000444412, 2.3404350001364946, 2.613343100063503, 2.5511847999878228, 2.9958915999159217]",431296,001,2022-11-10_09h59.35.602,Intentional Binding Task,2022.2.2,60.0634869878296,
0.7,1000,exp,2,3,27,5,161.5906752999872,162.57569100009277,162.57569100009277,162.5923804002814,space,0.8562529995106161,164.15699702007697,,164.47234520036727,164.47234520036727,164.47234520036727,357,28,"[2.5784627003595233, 1.9747254997491837, 1.6657448001205921, 1.398560100235045, 1.715775900054723, 0.919919699896127, 1.8401504000648856, 1.3428099998272955, 1.281333599705249, 2.2801421997137368, 1.4480629996396601, 1.498726099729538, 1.527417200151831, 1.8122852998785675, 2.7830648999661207, 1.7982993996702135, 1.9450487000867724, 6.315618200227618, 2.1476153996773064, 2.364063199609518, 3.431335300207138, 2.930376600008458, 3.661416399758309, 2.3404001998715103, 2.613333700224757, 2.551168399862945, 2.995882600080222, 3.238273000344634]","[2.578470000065863, 1.9747342998161912, 1.6657530004158616, 1.3985688001848757, 1.715784799773246, 0.9199316999875009, 1.8401681003160775, 1.3428163002245128, 1.2813420998863876, 2.2801496000029147, 1.4480713000521064, 1.4987355000339448, 1.5274348999373615, 1.8122922000475228, 2.783074200153351, 1.7983086998574436, 1.9450564002618194, 6.315624400041997, 2.1476245000958443, 2.3640749999321997, 3.4313411000184715, 2.9303840999491513, 3.6614234000444412, 2.3404350001364946, 2.613343100063503, 2.5511847999878228, 2.9958915999159217, 3.2382831000722945]",431296,001,2022-11-10_09h59.35.602,Intentional Binding Task,2022.2.2,60.0634869878296,
0.7,400,unexp,2,4,28,2,167.70707210013643,168.69196960004047,168.69196960004047,168.70911450032145,space,0.46268519992008805,169.85915972031654,,170.17329770000651,170.17329770000651,170.17329770000651,905,29,"[2.5784627003595233, 1.9747254997491837, 1.6657448001205921, 1.398560100235045, 1.715775900054723, 0.919919699896127, 1.8401504000648856, 1.3428099998272955, 1.281333599705249, 2.2801421997137368, 1.4480629996396601, 1.498726099729538, 1.527417200151831, 1.8122852998785675, 2.7830648999661207, 1.7982993996702135, 1.9450487000867724, 6.315618200227618, 2.1476153996773064, 2.364063199609518, 3.431335300207138, 2.930376600008458, 3.661416399758309, 2.3404001998715103, 2.613333700224757, 2.551168399862945, 2.995882600080222, 3.238273000344634, 3.3966692998073995]","[2.578470000065863, 1.9747342998161912, 1.6657530004158616, 1.3985688001848757, 1.715784799773246, 0.9199316999875009, 1.8401681003160775, 1.3428163002245128, 1.2813420998863876, 2.2801496000029147, 1.4480713000521064, 1.4987355000339448, 1.5274348999373615, 1.8122922000475228, 2.783074200153351, 1.7983086998574436, 1.9450564002618194, 6.315624400041997, 2.1476245000958443, 2.3640749999321997, 3.4313411000184715, 2.9303840999491513, 3.6614234000444412, 2.3404350001364946, 2.613343100063503, 2.5511847999878228, 2.9958915999159217, 3.2382831000722945, 3.396678099874407]",431296,001,2022-11-10_09h59.35.602,Intentional Binding Task,2022.2.2,60.0634869878296,
0.1,1000,exp,2,5,29,3,173.5570392999798,174.542601400055,174.542601400055,174.55933800013736,space,2.2520001996308565,176.92564112013207,,177.23130630003288,177.23130630003288,177.23130630003288,604,30,"[2.5784627003595233, 1.9747254997491837, 1.6657448001205921, 1.398560100235045, 1.715775900054723, 0.919919699896127, 1.8401504000648856, 1.3428099998272955, 1.281333599705249, 2.2801421997137368, 1.4480629996396601, 1.498726099729538, 1.527417200151831, 1.8122852998785675, 2.7830648999661207, 1.7982993996702135, 1.9450487000867724, 6.315618200227618, 2.1476153996773064, 2.364063199609518, 3.431335300207138, 2.930376600008458, 3.661416399758309, 2.3404001998715103, 2.613333700224757, 2.551168399862945, 2.995882600080222, 3.238273000344634, 3.3966692998073995, 2.462689499836415]","[2.578470000065863, 1.9747342998161912, 1.6657530004158616, 1.3985688001848757, 1.715784799773246, 0.9199316999875009, 1.8401681003160775, 1.3428163002245128, 1.2813420998863876, 2.2801496000029147, 1.4480713000521064, 1.4987355000339448, 1.5274348999373615, 1.8122922000475228, 2.783074200153351, 1.7983086998574436, 1.9450564002618194, 6.315624400041997, 2.1476245000958443, 2.3640749999321997, 3.4313411000184715, 2.9303840999491513, 3.6614234000444412, 2.3404350001364946, 2.613343100063503, 2.5511847999878228, 2.9958915999159217, 3.2382831000722945, 3.396678099874407, 2.462698099669069]",431296,001,2022-11-10_09h59.35.602,Intentional Binding Task,2022.2.2,60.0634869878296,
0.1,1000,exp,2,6,30,6,179.69090940011665,180.69082630006596,180.69082630006596,180.69082630006596,space,0.9098318996839225,181.72421652004124,,182.04431380005553,182.04431380005553,182.04431380005553,514,31,"[2.5784627003595233, 1.9747254997491837, 1.6657448001205921, 1.398560100235045, 1.715775900054723, 0.919919699896127, 1.8401504000648856, 1.3428099998272955, 1.281333599705249, 2.2801421997137368, 1.4480629996396601, 1.498726099729538, 1.527417200151831, 1.8122852998785675, 2.7830648999661207, 1.7982993996702135, 1.9450487000867724, 6.315618200227618, 2.1476153996773064, 2.364063199609518, 3.431335300207138, 2.930376600008458, 3.661416399758309, 2.3404001998715103, 2.613333700224757, 2.551168399862945, 2.995882600080222, 3.238273000344634, 3.3966692998073995, 2.462689499836415, 4.777583099901676]","[2.578470000065863, 1.9747342998161912, 1.6657530004158616, 1.3985688001848757, 1.715784799773246, 0.9199316999875009, 1.8401681003160775, 1.3428163002245128, 1.2813420998863876, 2.2801496000029147, 1.4480713000521064, 1.4987355000339448, 1.5274348999373615, 1.8122922000475228, 2.783074200153351, 1.7983086998574436, 1.9450564002618194, 6.315624400041997, 2.1476245000958443, 2.3640749999321997, 3.4313411000184715, 2.9303840999491513, 3.6614234000444412, 2.3404350001364946, 2.613343100063503, 2.5511847999878228, 2.9958915999159217, 3.2382831000722945, 3.396678099874407, 2.462698099669069, 4.777590099722147]",431296,001,2022-11-10_09h59.35.602,Intentional Binding Task,2022.2.2,60.0634869878296,
0.4,400,unexp,2,7,31,1,186.80793110001832,187.8076324001886,187.8076324001886,187.8076324001886,space,0.7389851994812489,188.97524472018705,189.27972090011463,189.27972090011463,189.27972090011463,189.27972090011463,16,32,"[2.5784627003595233, 1.9747254997491837, 1.6657448001205921, 1.398560100235045, 1.715775900054723, 0.919919699896127, 1.8401504000648856, 1.3428099998272955, 1.281333599705249, 2.2801421997137368, 1.4480629996396601, 1.498726099729538, 1.527417200151831, 1.8122852998785675, 2.7830648999661207, 1.7982993996702135, 1.9450487000867724, 6.315618200227618, 2.1476153996773064, 2.364063199609518, 3.431335300207138, 2.930376600008458, 3.661416399758309, 2.3404001998715103, 2.613333700224757, 2.551168399862945, 2.995882600080222, 3.238273000344634, 3.3966692998073995, 2.462689499836415, 4.777583099901676, 4.46464559994638]","[2.578470000065863, 1.9747342998161912, 1.6657530004158616, 1.3985688001848757, 1.715784799773246, 0.9199316999875009, 1.8401681003160775, 1.3428163002245128, 1.2813420998863876, 2.2801496000029147, 1.4480713000521064, 1.4987355000339448, 1.5274348999373615, 1.8122922000475228, 2.783074200153351, 1.7983086998574436, 1.9450564002618194, 6.315624400041997, 2.1476245000958443, 2.3640749999321997, 3.4313411000184715, 2.9303840999491513, 3.6614234000444412, 2.3404350001364946, 2.613343100063503, 2.5511847999878228, 2.9958915999159217, 3.2382831000722945, 3.396678099874407, 2.462698099669069, 4.777590099722147, 4.464652699884027]",431296,001,2022-11-10_09h59.35.602,Intentional Binding Task,2022.2.2,60.0634869878296,
0.4,1000,exp,2,8,32,10,193.7415016000159,194.74118999997154,194.74118999997154,194.74118999997154,space,1.3366133999079466,196.50784142008052,,196.82537130033597,196.82537130033597,196.82537130033597,15,33,"[2.5784627003595233, 1.9747254997491837, 1.6657448001205921, 1.398560100235045, 1.715775900054723, 0.919919699896127, 1.8401504000648856, 1.3428099998272955, 1.281333599705249, 2.2801421997137368, 1.4480629996396601, 1.498726099729538, 1.527417200151831, 1.8122852998785675, 2.7830648999661207, 1.7982993996702135, 1.9450487000867724, 6.315618200227618, 2.1476153996773064, 2.364063199609518, 3.431335300207138, 2.930376600008458, 3.661416399758309, 2.3404001998715103, 2.613333700224757, 2.551168399862945, 2.995882600080222, 3.238273000344634, 3.3966692998073995, 2.462689499836415, 4.777583099901676, 4.46464559994638, 1.8777270000427961]","[2.578470000065863, 1.9747342998161912, 1.6657530004158616, 1.3985688001848757, 1.715784799773246, 0.9199316999875009, 1.8401681003160775, 1.3428163002245128, 1.2813420998863876, 2.2801496000029147, 1.4480713000521064, 1.4987355000339448, 1.5274348999373615, 1.8122922000475228, 2.783074200153351, 1.7983086998574436, 1.9450564002618194, 6.315624400041997, 2.1476245000958443, 2.3640749999321997, 3.4313411000184715, 2.9303840999491513, 3.6614234000444412, 2.3404350001364946, 2.613343100063503, 2.5511847999878228, 2.9958915999159217, 3.2382831000722945, 3.396678099874407, 2.462698099669069, 4.777590099722147, 4.464652699884027, 1.877732700202614]",431296,001,2022-11-10_09h59.35.602,Intentional Binding Task,2022.2.2,60.0634869878296,
0.7,1000,exp,2,9,33,11,198.6917803999968,199.67659660009667,199.67659660009667,199.69326690025628,space,0.870038699824363,201.25974102010952,201.56207300024107,201.56207300024107,201.56207300024107,201.56207300024107,317,34,"[2.5784627003595233, 1.9747254997491837, 1.6657448001205921, 1.398560100235045, 1.715775900054723, 0.919919699896127, 1.8401504000648856, 1.3428099998272955, 1.281333599705249, 2.2801421997137368, 1.4480629996396601, 1.498726099729538, 1.527417200151831, 1.8122852998785675, 2.7830648999661207, 1.7982993996702135, 1.9450487000867724, 6.315618200227618, 2.1476153996773064, 2.364063199609518, 3.431335300207138, 2.930376600008458, 3.661416399758309, 2.3404001998715103, 2.613333700224757, 2.551168399862945, 2.995882600080222, 3.238273000344634, 3.3966692998073995, 2.462689499836415, 4.777583099901676, 4.46464559994638, 1.8777270000427961, 4.414098500274122]","[2.578470000065863, 1.9747342998161912, 1.6657530004158616, 1.3985688001848757, 1.715784799773246, 0.9199316999875009, 1.8401681003160775, 1.3428163002245128, 1.2813420998863876, 2.2801496000029147, 1.4480713000521064, 1.4987355000339448, 1.5274348999373615, 1.8122922000475228, 2.783074200153351, 1.7983086998574436, 1.9450564002618194, 6.315624400041997, 2.1476245000958443, 2.3640749999321997, 3.4313411000184715, 2.9303840999491513, 3.6614234000444412, 2.3404350001364946, 2.613343100063503, 2.5511847999878228, 2.9958915999159217, 3.2382831000722945, 3.396678099874407, 2.462698099669069, 4.777590099722147, 4.464652699884027, 1.877732700202614, 4.414110600017011]",431296,001,2022-11-10_09h59.35.602,Intentional Binding Task,2022.2.2,60.0634869878296,
0.4,1000,exp,2,10,34,4,205.97514330036938,206.95805429993197,206.95805429993197,206.97480910038576,space,0.6289068995974958,208.01110161999242,,208.32762619992718,208.32762619992718,208.32762619992718,810,35,"[2.5784627003595233, 1.9747254997491837, 1.6657448001205921, 1.398560100235045, 1.715775900054723, 0.919919699896127, 1.8401504000648856, 1.3428099998272955, 1.281333599705249, 2.2801421997137368, 1.4480629996396601, 1.498726099729538, 1.527417200151831, 1.8122852998785675, 2.7830648999661207, 1.7982993996702135, 1.9450487000867724, 6.315618200227618, 2.1476153996773064, 2.364063199609518, 3.431335300207138, 2.930376600008458, 3.661416399758309, 2.3404001998715103, 2.613333700224757, 2.551168399862945, 2.995882600080222, 3.238273000344634, 3.3966692998073995, 2.462689499836415, 4.777583099901676, 4.46464559994638, 1.8777270000427961, 4.414098500274122, 5.4280715002678335]","[2.578470000065863, 1.9747342998161912, 1.6657530004158616, 1.3985688001848757, 1.715784799773246, 0.9199316999875009, 1.8401681003160775, 1.3428163002245128, 1.2813420998863876, 2.2801496000029147, 1.4480713000521064, 1.4987355000339448, 1.5274348999373615, 1.8122922000475228, 2.783074200153351, 1.7983086998574436, 1.9450564002618194, 6.315624400041997, 2.1476245000958443, 2.3640749999321997, 3.4313411000184715, 2.9303840999491513, 3.6614234000444412, 2.3404350001364946, 2.613343100063503, 2.5511847999878228, 2.9958915999159217, 3.2382831000722945, 3.396678099874407, 2.462698099669069, 4.777590099722147, 4.464652699884027, 1.877732700202614, 4.414110600017011, 5.428079999983311]",431296,001,2022-11-10_09h59.35.602,Intentional Binding Task,2022.2.2,60.0634869878296,
0.1,400,unexp,2,11,35,0,213.74210650008172,214.74212840013206,214.74212840013206,214.74212840013206,space,0.5699057993479073,215.44274231996388,,215.7582261003554,215.7582261003554,215.7582261003554,974,36,"[2.5784627003595233, 1.9747254997491837, 1.6657448001205921, 1.398560100235045, 1.715775900054723, 0.919919699896127, 1.8401504000648856, 1.3428099998272955, 1.281333599705249, 2.2801421997137368, 1.4480629996396601, 1.498726099729538, 1.527417200151831, 1.8122852998785675, 2.7830648999661207, 1.7982993996702135, 1.9450487000867724, 6.315618200227618, 2.1476153996773064, 2.364063199609518, 3.431335300207138, 2.930376600008458, 3.661416399758309, 2.3404001998715103, 2.613333700224757, 2.551168399862945, 2.995882600080222, 3.238273000344634, 3.3966692998073995, 2.462689499836415, 4.777583099901676, 4.46464559994638, 1.8777270000427961, 4.414098500274122, 5.4280715002678335, 6.8142808000557125]","[2.578470000065863, 1.9747342998161912, 1.6657530004158616, 1.3985688001848757, 1.715784799773246, 0.9199316999875009, 1.8401681003160775, 1.3428163002245128, 1.2813420998863876, 2.2801496000029147, 1.4480713000521064, 1.4987355000339448, 1.5274348999373615, 1.8122922000475228, 2.783074200153351, 1.7983086998574436, 1.9450564002618194, 6.315624400041997, 2.1476245000958443, 2.3640749999321997, 3.4313411000184715, 2.9303840999491513, 3.6614234000444412, 2.3404350001364946, 2.613343100063503, 2.5511847999878228, 2.9958915999159217, 3.2382831000722945, 3.396678099874407, 2.462698099669069, 4.777590099722147, 4.464652699884027, 1.877732700202614, 4.414110600017011, 5.428079999983311, 6.814297799952328]",431296,001,2022-11-10_09h59.35.602,Intentional Binding Task,2022.2.2,60.0634869878296,
0.7,400,unexp,3,0,36,2,222.55837250035256,223.56141429999843,223.56141429999843,223.56141429999843,space,0.8488489999435842,225.12622461998836,225.446220099926,225.446220099926,225.446220099926,225.446220099926,347,37,"[2.5784627003595233, 1.9747254997491837, 1.6657448001205921, 1.398560100235045, 1.715775900054723, 0.919919699896127, 1.8401504000648856, 1.3428099998272955, 1.281333599705249, 2.2801421997137368, 1.4480629996396601, 1.498726099729538, 1.527417200151831, 1.8122852998785675, 2.7830648999661207, 1.7982993996702135, 1.9450487000867724, 6.315618200227618, 2.1476153996773064, 2.364063199609518, 3.431335300207138, 2.930376600008458, 3.661416399758309, 2.3404001998715103, 2.613333700224757, 2.551168399862945, 2.995882600080222, 3.238273000344634, 3.3966692998073995, 2.462689499836415, 4.777583099901676, 4.46464559994638, 1.8777270000427961, 4.414098500274122, 5.4280715002678335, 6.8142808000557125, 3.8447199002839625]","[2.578470000065863, 1.9747342998161912, 1.6657530004158616, 1.3985688001848757, 1.715784799773246, 0.9199316999875009, 1.8401681003160775, 1.3428163002245128, 1.2813420998863876, 2.2801496000029147, 1.4480713000521064, 1.4987355000339448, 1.5274348999373615, 1.8122922000475228, 2.783074200153351, 1.7983086998574436, 1.9450564002618194, 6.315624400041997, 2.1476245000958443, 2.3640749999321997, 3.4313411000184715, 2.9303840999491513, 3.6614234000444412, 2.3404350001364946, 2.613343100063503, 2.5511847999878228, 2.9958915999159217, 3.2382831000722945, 3.396678099874407, 2.462698099669069, 4.777590099722147, 4.464652699884027, 1.877732700202614, 4.414110600017011, 5.428079999983311, 6.814297799952328, 3.8447283999994397]",431296,001,2022-11-10_09h59.35.602,Intentional Binding Task,2022.2.2,60.0634869878296,
0.1,1000,exp,3,1,37,9,229.27515330025926,230.2604371001944,230.2604371001944,230.27785430010408,space,1.0683588995598257,231.44387982012705,231.76009800005704,231.76009800005704,231.76009800005704,231.76009800005704,410 ,38,"[2.5784627003595233, 1.9747254997491837, 1.6657448001205921, 1.398560100235045, 1.715775900054723, 0.919919699896127, 1.8401504000648856, 1.3428099998272955, 1.281333599705249, 2.2801421997137368, 1.4480629996396601, 1.498726099729538, 1.527417200151831, 1.8122852998785675, 2.7830648999661207, 1.7982993996702135, 1.9450487000867724, 6.315618200227618, 2.1476153996773064, 2.364063199609518, 3.431335300207138, 2.930376600008458, 3.661416399758309, 2.3404001998715103, 2.613333700224757, 2.551168399862945, 2.995882600080222, 3.238273000344634, 3.3966692998073995, 2.462689499836415, 4.777583099901676, 4.46464559994638, 1.8777270000427961, 4.414098500274122, 5.4280715002678335, 6.8142808000557125, 3.8447199002839625, 4.028471100144088]","[2.578470000065863, 1.9747342998161912, 1.6657530004158616, 1.3985688001848757, 1.715784799773246, 0.9199316999875009, 1.8401681003160775, 1.3428163002245128, 1.2813420998863876, 2.2801496000029147, 1.4480713000521064, 1.4987355000339448, 1.5274348999373615, 1.8122922000475228, 2.783074200153351, 1.7983086998574436, 1.9450564002618194, 6.315624400041997, 2.1476245000958443, 2.3640749999321997, 3.4313411000184715, 2.9303840999491513, 3.6614234000444412, 2.3404350001364946, 2.613343100063503, 2.5511847999878228, 2.9958915999159217, 3.2382831000722945, 3.396678099874407, 2.462698099669069, 4.777590099722147, 4.464652699884027, 1.877732700202614, 4.414110600017011, 5.428079999983311, 6.814297799952328, 3.8447283999994397, 4.028478200081736]",431296,001,2022-11-10_09h59.35.602,Intentional Binding Task,2022.2.2,60.0634869878296,
0.7,1000,exp,3,2,38,5,235.7758580003865,236.7605876000598,236.7605876000598,236.77806270029396,space,2.2643863996490836,239.74488982018084,,240.06415960006416,240.06415960006416,240.06415960006416,135,39,"[2.5784627003595233, 1.9747254997491837, 1.6657448001205921, 1.398560100235045, 1.715775900054723, 0.919919699896127, 1.8401504000648856, 1.3428099998272955, 1.281333599705249, 2.2801421997137368, 1.4480629996396601, 1.498726099729538, 1.527417200151831, 1.8122852998785675, 2.7830648999661207, 1.7982993996702135, 1.9450487000867724, 6.315618200227618, 2.1476153996773064, 2.364063199609518, 3.431335300207138, 2.930376600008458, 3.661416399758309, 2.3404001998715103, 2.613333700224757, 2.551168399862945, 2.995882600080222, 3.238273000344634, 3.3966692998073995, 2.462689499836415, 4.777583099901676, 4.46464559994638, 1.8777270000427961, 4.414098500274122, 5.4280715002678335, 6.8142808000557125, 3.8447199002839625, 4.028471100144088, 1.842600999865681]","[2.578470000065863, 1.9747342998161912, 1.6657530004158616, 1.3985688001848757, 1.715784799773246, 0.9199316999875009, 1.8401681003160775, 1.3428163002245128, 1.2813420998863876, 2.2801496000029147, 1.4480713000521064, 1.4987355000339448, 1.5274348999373615, 1.8122922000475228, 2.783074200153351, 1.7983086998574436, 1.9450564002618194, 6.315624400041997, 2.1476245000958443, 2.3640749999321997, 3.4313411000184715, 2.9303840999491513, 3.6614234000444412, 2.3404350001364946, 2.613343100063503, 2.5511847999878228, 2.9958915999159217, 3.2382831000722945, 3.396678099874407, 2.462698099669069, 4.777590099722147, 4.464652699884027, 1.877732700202614, 4.414110600017011, 5.428079999983311, 6.814297799952328, 3.8447283999994397, 4.028478200081736, 1.8426072001457214]",431296,001,2022-11-10_09h59.35.602,Intentional Binding Task,2022.2.2,60.0634869878296,
0.1,1000,exp,3,3,39,3,241.89249090012163,242.8779686000198,242.8779686000198,242.89413040038198,space,1.4321702998131514,244.42841912033037,,244.7449826002121,244.7449826002121,244.7449826002121,573,40,"[2.5784627003595233, 1.9747254997491837, 1.6657448001205921, 1.398560100235045, 1.715775900054723, 0.919919699896127, 1.8401504000648856, 1.3428099998272955, 1.281333599705249, 2.2801421997137368, 1.4480629996396601, 1.498726099729538, 1.527417200151831, 1.8122852998785675, 2.7830648999661207, 1.7982993996702135, 1.9450487000867724, 6.315618200227618, 2.1476153996773064, 2.364063199609518, 3.431335300207138, 2.930376600008458, 3.661416399758309, 2.3404001998715103, 2.613333700224757, 2.551168399862945, 2.995882600080222, 3.238273000344634, 3.3966692998073995, 2.462689499836415, 4.777583099901676, 4.46464559994638, 1.8777270000427961, 4.414098500274122, 5.4280715002678335, 6.8142808000557125, 3.8447199002839625, 4.028471100144088, 1.842600999865681, 2.5979042001999915]","[2.578470000065863, 1.9747342998161912, 1.6657530004158616, 1.3985688001848757, 1.715784799773246, 0.9199316999875009, 1.8401681003160775, 1.3428163002245128, 1.2813420998863876, 2.2801496000029147, 1.4480713000521064, 1.4987355000339448, 1.5274348999373615, 1.8122922000475228, 2.783074200153351, 1.7983086998574436, 1.9450564002618194, 6.315624400041997, 2.1476245000958443, 2.3640749999321997, 3.4313411000184715, 2.9303840999491513, 3.6614234000444412, 2.3404350001364946, 2.613343100063503, 2.5511847999878228, 2.9958915999159217, 3.2382831000722945, 3.396678099874407, 2.462698099669069, 4.777590099722147, 4.464652699884027, 1.877732700202614, 4.414110600017011, 5.428079999983311, 6.814297799952328, 3.8447283999994397, 4.028478200081736, 1.8426072001457214, 2.597911700140685]",431296,001,2022-11-10_09h59.35.602,Intentional Binding Task,2022.2.2,60.0634869878296,
0.1,1000,exp,3,4,40,6,247.34254990005866,248.3429980003275,248.3429980003275,248.3429980003275,space,0.23884079977869987,248.71114152036608,,249.01099790027365,249.01099790027365,249.01099790027365,23,41,"[2.5784627003595233, 1.9747254997491837, 1.6657448001205921, 1.398560100235045, 1.715775900054723, 0.919919699896127, 1.8401504000648856, 1.3428099998272955, 1.281333599705249, 2.2801421997137368, 1.4480629996396601, 1.498726099729538, 1.527417200151831, 1.8122852998785675, 2.7830648999661207, 1.7982993996702135, 1.9450487000867724, 6.315618200227618, 2.1476153996773064, 2.364063199609518, 3.431335300207138, 2.930376600008458, 3.661416399758309, 2.3404001998715103, 2.613333700224757, 2.551168399862945, 2.995882600080222, 3.238273000344634, 3.3966692998073995, 2.462689499836415, 4.777583099901676, 4.46464559994638, 1.8777270000427961, 4.414098500274122, 5.4280715002678335, 6.8142808000557125, 3.8447199002839625, 4.028471100144088, 1.842600999865681, 2.5979042001999915, 1.7186822998337448]","[2.578470000065863, 1.9747342998161912, 1.6657530004158616, 1.3985688001848757, 1.715784799773246, 0.9199316999875009, 1.8401681003160775, 1.3428163002245128, 1.2813420998863876, 2.2801496000029147, 1.4480713000521064, 1.4987355000339448, 1.5274348999373615, 1.8122922000475228, 2.783074200153351, 1.7983086998574436, 1.9450564002618194, 6.315624400041997, 2.1476245000958443, 2.3640749999321997, 3.4313411000184715, 2.9303840999491513, 3.6614234000444412, 2.3404350001364946, 2.613343100063503, 2.5511847999878228, 2.9958915999159217, 3.2382831000722945, 3.396678099874407, 2.462698099669069, 4.777590099722147, 4.464652699884027, 1.877732700202614, 4.414110600017011, 5.428079999983311, 6.814297799952328, 3.8447283999994397, 4.028478200081736, 1.8426072001457214, 2.597911700140685, 1.7186962999403477]",431296,001,2022-11-10_09h59.35.602,Intentional Binding Task,2022.2.2,60.0634869878296,
0.4,400,unexp,3,5,41,1,250.7270754999481,251.72773370007053,251.72773370007053,251.72773370007053,space,0.8849598993547261,253.02853932017462,,253.34792860038579,253.34792860038579,253.34792860038579,130,42,"[2.5784627003595233, 1.9747254997491837, 1.6657448001205921, 1.398560100235045, 1.715775900054723, 0.919919699896127, 1.8401504000648856, 1.3428099998272955, 1.281333599705249, 2.2801421997137368, 1.4480629996396601, 1.498726099729538, 1.527417200151831, 1.8122852998785675, 2.7830648999661207, 1.7982993996702135, 1.9450487000867724, 6.315618200227618, 2.1476153996773064, 2.364063199609518, 3.431335300207138, 2.930376600008458, 3.661416399758309, 2.3404001998715103, 2.613333700224757, 2.551168399862945, 2.995882600080222, 3.238273000344634, 3.3966692998073995, 2.462689499836415, 4.777583099901676, 4.46464559994638, 1.8777270000427961, 4.414098500274122, 5.4280715002678335, 6.8142808000557125, 3.8447199002839625, 4.028471100144088, 1.842600999865681, 2.5979042001999915, 1.7186822998337448, 3.4526774999685585]","[2.578470000065863, 1.9747342998161912, 1.6657530004158616, 1.3985688001848757, 1.715784799773246, 0.9199316999875009, 1.8401681003160775, 1.3428163002245128, 1.2813420998863876, 2.2801496000029147, 1.4480713000521064, 1.4987355000339448, 1.5274348999373615, 1.8122922000475228, 2.783074200153351, 1.7983086998574436, 1.9450564002618194, 6.315624400041997, 2.1476245000958443, 2.3640749999321997, 3.4313411000184715, 2.9303840999491513, 3.6614234000444412, 2.3404350001364946, 2.613343100063503, 2.5511847999878228, 2.9958915999159217, 3.2382831000722945, 3.396678099874407, 2.462698099669069, 4.777590099722147, 4.464652699884027, 1.877732700202614, 4.414110600017011, 5.428079999983311, 6.814297799952328, 3.8447283999994397, 4.028478200081736, 1.8426072001457214, 2.597911700140685, 1.7186962999403477, 3.452693599741906]",431296,001,2022-11-10_09h59.35.602,Intentional Binding Task,2022.2.2,60.0634869878296,
0.1,400,unexp,3,6,42,0,256.79355860035866,257.7778140003793,257.7778140003793,257.79419209994376,space,0.9803601996973157,258.8783453201875,,259.20024499995634,259.20024499995634,259.20024499995634,94,43,"[2.5784627003595233, 1.9747254997491837, 1.6657448001205921, 1.398560100235045, 1.715775900054723, 0.919919699896127, 1.8401504000648856, 1.3428099998272955, 1.281333599705249, 2.2801421997137368, 1.4480629996396601, 1.498726099729538, 1.527417200151831, 1.8122852998785675, 2.7830648999661207, 1.7982993996702135, 1.9450487000867724, 6.315618200227618, 2.1476153996773064, 2.364063199609518, 3.431335300207138, 2.930376600008458, 3.661416399758309, 2.3404001998715103, 2.613333700224757, 2.551168399862945, 2.995882600080222, 3.238273000344634, 3.3966692998073995, 2.462689499836415, 4.777583099901676, 4.46464559994638, 1.8777270000427961, 4.414098500274122, 5.4280715002678335, 6.8142808000557125, 3.8447199002839625, 4.028471100144088, 1.842600999865681, 2.5979042001999915, 1.7186822998337448, 3.4526774999685585, 1.9353058002889156]","[2.578470000065863, 1.9747342998161912, 1.6657530004158616, 1.3985688001848757, 1.715784799773246, 0.9199316999875009, 1.8401681003160775, 1.3428163002245128, 1.2813420998863876, 2.2801496000029147, 1.4480713000521064, 1.4987355000339448, 1.5274348999373615, 1.8122922000475228, 2.783074200153351, 1.7983086998574436, 1.9450564002618194, 6.315624400041997, 2.1476245000958443, 2.3640749999321997, 3.4313411000184715, 2.9303840999491513, 3.6614234000444412, 2.3404350001364946, 2.613343100063503, 2.5511847999878228, 2.9958915999159217, 3.2382831000722945, 3.396678099874407, 2.462698099669069, 4.777590099722147, 4.464652699884027, 1.877732700202614, 4.414110600017011, 5.428079999983311, 6.814297799952328, 3.8447283999994397, 4.028478200081736, 1.8426072001457214, 2.597911700140685, 1.7186962999403477, 3.452693599741906, 1.935312199871987]",431296,001,2022-11-10_09h59.35.602,Intentional Binding Task,2022.2.2,60.0634869878296,
0.7,1000,exp,3,7,43,8,261.12592040002346,262.1101417001337,262.1101417001337,262.1264204001054,space,0.5368990995921195,263.3614748201333,,263.69201730005443,263.69201730005443,263.69201730005443,0,44,"[2.5784627003595233, 1.9747254997491837, 1.6657448001205921, 1.398560100235045, 1.715775900054723, 0.919919699896127, 1.8401504000648856, 1.3428099998272955, 1.281333599705249, 2.2801421997137368, 1.4480629996396601, 1.498726099729538, 1.527417200151831, 1.8122852998785675, 2.7830648999661207, 1.7982993996702135, 1.9450487000867724, 6.315618200227618, 2.1476153996773064, 2.364063199609518, 3.431335300207138, 2.930376600008458, 3.661416399758309, 2.3404001998715103, 2.613333700224757, 2.551168399862945, 2.995882600080222, 3.238273000344634, 3.3966692998073995, 2.462689499836415, 4.777583099901676, 4.46464559994638, 1.8777270000427961, 4.414098500274122, 5.4280715002678335, 6.8142808000557125, 3.8447199002839625, 4.028471100144088, 1.842600999865681, 2.5979042001999915, 1.7186822998337448, 3.4526774999685585, 1.9353058002889156, 2.34359659999609]","[2.578470000065863, 1.9747342998161912, 1.6657530004158616, 1.3985688001848757, 1.715784799773246, 0.9199316999875009, 1.8401681003160775, 1.3428163002245128, 1.2813420998863876, 2.2801496000029147, 1.4480713000521064, 1.4987355000339448, 1.5274348999373615, 1.8122922000475228, 2.783074200153351, 1.7983086998574436, 1.9450564002618194, 6.315624400041997, 2.1476245000958443, 2.3640749999321997, 3.4313411000184715, 2.9303840999491513, 3.6614234000444412, 2.3404350001364946, 2.613343100063503, 2.5511847999878228, 2.9958915999159217, 3.2382831000722945, 3.396678099874407, 2.462698099669069, 4.777590099722147, 4.464652699884027, 1.877732700202614, 4.414110600017011, 5.428079999983311, 6.814297799952328, 3.8447283999994397, 4.028478200081736, 1.8426072001457214, 2.597911700140685, 1.7186962999403477, 3.452693599741906, 1.935312199871987, 2.3436041004024446]",431296,001,2022-11-10_09h59.35.602,Intentional Binding Task,2022.2.2,60.0634869878296,
0.4,1000,exp,3,8,44,4,266.0101722003892,266.9980374001898,266.9980374001898,267.01163349999115,space,0.8929481995292008,268.31183082023637,,268.62674610037357,268.62674610037357,268.62674610037357,65,45,"[2.5784627003595233, 1.9747254997491837, 1.6657448001205921, 1.398560100235045, 1.715775900054723, 0.919919699896127, 1.8401504000648856, 1.3428099998272955, 1.281333599705249, 2.2801421997137368, 1.4480629996396601, 1.498726099729538, 1.527417200151831, 1.8122852998785675, 2.7830648999661207, 1.7982993996702135, 1.9450487000867724, 6.315618200227618, 2.1476153996773064, 2.364063199609518, 3.431335300207138, 2.930376600008458, 3.661416399758309, 2.3404001998715103, 2.613333700224757, 2.551168399862945, 2.995882600080222, 3.238273000344634, 3.3966692998073995, 2.462689499836415, 4.777583099901676, 4.46464559994638, 1.8777270000427961, 4.414098500274122, 5.4280715002678335, 6.8142808000557125, 3.8447199002839625, 4.028471100144088, 1.842600999865681, 2.5979042001999915, 1.7186822998337448, 3.4526774999685585, 1.9353058002889156, 2.34359659999609, 2.962599900085479]","[2.578470000065863, 1.9747342998161912, 1.6657530004158616, 1.3985688001848757, 1.715784799773246, 0.9199316999875009, 1.8401681003160775, 1.3428163002245128, 1.2813420998863876, 2.2801496000029147, 1.4480713000521064, 1.4987355000339448, 1.5274348999373615, 1.8122922000475228, 2.783074200153351, 1.7983086998574436, 1.9450564002618194, 6.315624400041997, 2.1476245000958443, 2.3640749999321997, 3.4313411000184715, 2.9303840999491513, 3.6614234000444412, 2.3404350001364946, 2.613343100063503, 2.5511847999878228, 2.9958915999159217, 3.2382831000722945, 3.396678099874407, 2.462698099669069, 4.777590099722147, 4.464652699884027, 1.877732700202614, 4.414110600017011, 5.428079999983311, 6.814297799952328, 3.8447283999994397, 4.028478200081736, 1.8426072001457214, 2.597911700140685, 1.7186962999403477, 3.452693599741906, 1.935312199871987, 2.3436041004024446, 2.962607800029218]",431296,001,2022-11-10_09h59.35.602,Intentional Binding Task,2022.2.2,60.0634869878296,
0.7,1000,exp,3,9,45,11,271.57655130000785,272.5645665000193,272.5645665000193,272.58045340003446,space,1.1659720996394753,274.4608636202291,274.7653972003609,274.7653972003609,274.7653972003609,274.7653972003609,89,46,"[2.5784627003595233, 1.9747254997491837, 1.6657448001205921, 1.398560100235045, 1.715775900054723, 0.919919699896127, 1.8401504000648856, 1.3428099998272955, 1.281333599705249, 2.2801421997137368, 1.4480629996396601, 1.498726099729538, 1.527417200151831, 1.8122852998785675, 2.7830648999661207, 1.7982993996702135, 1.9450487000867724, 6.315618200227618, 2.1476153996773064, 2.364063199609518, 3.431335300207138, 2.930376600008458, 3.661416399758309, 2.3404001998715103, 2.613333700224757, 2.551168399862945, 2.995882600080222, 3.238273000344634, 3.3966692998073995, 2.462689499836415, 4.777583099901676, 4.46464559994638, 1.8777270000427961, 4.414098500274122, 5.4280715002678335, 6.8142808000557125, 3.8447199002839625, 4.028471100144088, 1.842600999865681, 2.5979042001999915, 1.7186822998337448, 3.4526774999685585, 1.9353058002889156, 2.34359659999609, 2.962599900085479, 3.3997076000086963]","[2.578470000065863, 1.9747342998161912, 1.6657530004158616, 1.3985688001848757, 1.715784799773246, 0.9199316999875009, 1.8401681003160775, 1.3428163002245128, 1.2813420998863876, 2.2801496000029147, 1.4480713000521064, 1.4987355000339448, 1.5274348999373615, 1.8122922000475228, 2.783074200153351, 1.7983086998574436, 1.9450564002618194, 6.315624400041997, 2.1476245000958443, 2.3640749999321997, 3.4313411000184715, 2.9303840999491513, 3.6614234000444412, 2.3404350001364946, 2.613343100063503, 2.5511847999878228, 2.9958915999159217, 3.2382831000722945, 3.396678099874407, 2.462698099669069, 4.777590099722147, 4.464652699884027, 1.877732700202614, 4.414110600017011, 5.428079999983311, 6.814297799952328, 3.8447283999994397, 4.028478200081736, 1.8426072001457214, 2.597911700140685, 1.7186962999403477, 3.452693599741906, 1.935312199871987, 2.3436041004024446, 2.962607800029218, 3.3997420999221504]",431296,001,2022-11-10_09h59.35.602,Intentional Binding Task,2022.2.2,60.0634869878296,
0.4,1000,exp,3,10,46,10,278.1605259999633,279.16108810016885,279.16108810016885,279.16108810016885,space,0.9756482997909188,280.5617293200456,,280.87623410020024,280.87623410020024,280.87623410020024,99,47,"[2.5784627003595233, 1.9747254997491837, 1.6657448001205921, 1.398560100235045, 1.715775900054723, 0.919919699896127, 1.8401504000648856, 1.3428099998272955, 1.281333599705249, 2.2801421997137368, 1.4480629996396601, 1.498726099729538, 1.527417200151831, 1.8122852998785675, 2.7830648999661207, 1.7982993996702135, 1.9450487000867724, 6.315618200227618, 2.1476153996773064, 2.364063199609518, 3.431335300207138, 2.930376600008458, 3.661416399758309, 2.3404001998715103, 2.613333700224757, 2.551168399862945, 2.995882600080222, 3.238273000344634, 3.3966692998073995, 2.462689499836415, 4.777583099901676, 4.46464559994638, 1.8777270000427961, 4.414098500274122, 5.4280715002678335, 6.8142808000557125, 3.8447199002839625, 4.028471100144088, 1.842600999865681, 2.5979042001999915, 1.7186822998337448, 3.4526774999685585, 1.9353058002889156, 2.34359659999609, 2.962599900085479, 3.3997076000086963, 1.4068358996883035]","[2.578470000065863, 1.9747342998161912, 1.6657530004158616, 1.3985688001848757, 1.715784799773246, 0.9199316999875009, 1.8401681003160775, 1.3428163002245128, 1.2813420998863876, 2.2801496000029147, 1.4480713000521064, 1.4987355000339448, 1.5274348999373615, 1.8122922000475228, 2.783074200153351, 1.7983086998574436, 1.9450564002618194, 6.315624400041997, 2.1476245000958443, 2.3640749999321997, 3.4313411000184715, 2.9303840999491513, 3.6614234000444412, 2.3404350001364946, 2.613343100063503, 2.5511847999878228, 2.9958915999159217, 3.2382831000722945, 3.396678099874407, 2.462698099669069, 4.777590099722147, 4.464652699884027, 1.877732700202614, 4.414110600017011, 5.428079999983311, 6.814297799952328, 3.8447283999994397, 4.028478200081736, 1.8426072001457214, 2.597911700140685, 1.7186962999403477, 3.452693599741906, 1.935312199871987, 2.3436041004024446, 2.962607800029218, 3.3997420999221504, 1.4068621997721493]",431296,001,2022-11-10_09h59.35.602,Intentional Binding Task,2022.2.2,60.0634869878296,
0.4,1000,exp,3,11,47,7,282.2771252002567,283.262246100232,283.262246100232,283.2789639001712,space,2.4108247999101877,286.0958350200206,286.4133596001193,286.4133596001193,286.4133596001193,286.4133596001193,105,48,"[2.5784627003595233, 1.9747254997491837, 1.6657448001205921, 1.398560100235045, 1.715775900054723, 0.919919699896127, 1.8401504000648856, 1.3428099998272955, 1.281333599705249, 2.2801421997137368, 1.4480629996396601, 1.498726099729538, 1.527417200151831, 1.8122852998785675, 2.7830648999661207, 1.7982993996702135, 1.9450487000867724, 6.315618200227618, 2.1476153996773064, 2.364063199609518, 3.431335300207138, 2.930376600008458, 3.661416399758309, 2.3404001998715103, 2.613333700224757, 2.551168399862945, 2.995882600080222, 3.238273000344634, 3.3966692998073995, 2.462689499836415, 4.777583099901676, 4.46464559994638, 1.8777270000427961, 4.414098500274122, 5.4280715002678335, 6.8142808000557125, 3.8447199002839625, 4.028471100144088, 1.842600999865681, 2.5979042001999915, 1.7186822998337448, 3.4526774999685585, 1.9353058002889156, 2.34359659999609, 2.962599900085479, 3.3997076000086963, 1.4068358996883035, 3.695535299833864]","[2.578470000065863, 1.9747342998161912, 1.6657530004158616, 1.3985688001848757, 1.715784799773246, 0.9199316999875009, 1.8401681003160775, 1.3428163002245128, 1.2813420998863876, 2.2801496000029147, 1.4480713000521064, 1.4987355000339448, 1.5274348999373615, 1.8122922000475228, 2.783074200153351, 1.7983086998574436, 1.9450564002618194, 6.315624400041997, 2.1476245000958443, 2.3640749999321997, 3.4313411000184715, 2.9303840999491513, 3.6614234000444412, 2.3404350001364946, 2.613343100063503, 2.5511847999878228, 2.9958915999159217, 3.2382831000722945, 3.396678099874407, 2.462698099669069, 4.777590099722147, 4.464652699884027, 1.877732700202614, 4.414110600017011, 5.428079999983311, 6.814297799952328, 3.8447283999994397, 4.028478200081736, 1.8426072001457214, 2.597911700140685, 1.7186962999403477, 3.452693599741906, 1.935312199871987, 2.3436041004024446, 2.962607800029218, 3.3997420999221504, 1.4068621997721493, 3.695542300119996]",431296,001,2022-11-10_09h59.35.602,Intentional Binding Task,2022.2.2,60.0634869878296,
0.1,400,unexp,4,0,48,0,290.0943617001176,291.0794404000044,291.0794404000044,291.0958030000329,space,0.7451267996802926,291.94699832024054,,292.2659591003321,292.2659591003321,292.2659591003321,61,49,"[2.5784627003595233, 1.9747254997491837, 1.6657448001205921, 1.398560100235045, 1.715775900054723, 0.919919699896127, 1.8401504000648856, 1.3428099998272955, 1.281333599705249, 2.2801421997137368, 1.4480629996396601, 1.498726099729538, 1.527417200151831, 1.8122852998785675, 2.7830648999661207, 1.7982993996702135, 1.9450487000867724, 6.315618200227618, 2.1476153996773064, 2.364063199609518, 3.431335300207138, 2.930376600008458, 3.661416399758309, 2.3404001998715103, 2.613333700224757, 2.551168399862945, 2.995882600080222, 3.238273000344634, 3.3966692998073995, 2.462689499836415, 4.777583099901676, 4.46464559994638, 1.8777270000427961, 4.414098500274122, 5.4280715002678335, 6.8142808000557125, 3.8447199002839625, 4.028471100144088, 1.842600999865681, 2.5979042001999915, 1.7186822998337448, 3.4526774999685585, 1.9353058002889156, 2.34359659999609, 2.962599900085479, 3.3997076000086963, 1.4068358996883035, 3.695535299833864, 1.8922264003194869]","[2.578470000065863, 1.9747342998161912, 1.6657530004158616, 1.3985688001848757, 1.715784799773246, 0.9199316999875009, 1.8401681003160775, 1.3428163002245128, 1.2813420998863876, 2.2801496000029147, 1.4480713000521064, 1.4987355000339448, 1.5274348999373615, 1.8122922000475228, 2.783074200153351, 1.7983086998574436, 1.9450564002618194, 6.315624400041997, 2.1476245000958443, 2.3640749999321997, 3.4313411000184715, 2.9303840999491513, 3.6614234000444412, 2.3404350001364946, 2.613343100063503, 2.5511847999878228, 2.9958915999159217, 3.2382831000722945, 3.396678099874407, 2.462698099669069, 4.777590099722147, 4.464652699884027, 1.877732700202614, 4.414110600017011, 5.428079999983311, 6.814297799952328, 3.8447283999994397, 4.028478200081736, 1.8426072001457214, 2.597911700140685, 1.7186962999403477, 3.452693599741906, 1.935312199871987, 2.3436041004024446, 2.962607800029218, 3.3997420999221504, 1.4068621997721493, 3.695542300119996, 1.892232900019735]",431296,001,2022-11-10_09h59.35.602,Intentional Binding Task,2022.2.2,60.0634869878296,
0.7,1000,exp,4,1,49,11,294.14409469999373,295.1285446002148,295.1285446002148,295.1456222003326,space,0.45571619970723987,296.3123183201067,,296.6279620002024,296.6279620002024,296.6279620002024,58,50,"[2.5784627003595233, 1.9747254997491837, 1.6657448001205921, 1.398560100235045, 1.715775900054723, 0.919919699896127, 1.8401504000648856, 1.3428099998272955, 1.281333599705249, 2.2801421997137368, 1.4480629996396601, 1.498726099729538, 1.527417200151831, 1.8122852998785675, 2.7830648999661207, 1.7982993996702135, 1.9450487000867724, 6.315618200227618, 2.1476153996773064, 2.364063199609518, 3.431335300207138, 2.930376600008458, 3.661416399758309, 2.3404001998715103, 2.613333700224757, 2.551168399862945, 2.995882600080222, 3.238273000344634, 3.3966692998073995, 2.462689499836415, 4.777583099901676, 4.46464559994638, 1.8777270000427961, 4.414098500274122, 5.4280715002678335, 6.8142808000557125, 3.8447199002839625, 4.028471100144088, 1.842600999865681, 2.5979042001999915, 1.7186822998337448, 3.4526774999685585, 1.9353058002889156, 2.34359659999609, 2.962599900085479, 3.3997076000086963, 1.4068358996883035, 3.695535299833864, 1.8922264003194869, 2.9957266999408603]","[2.578470000065863, 1.9747342998161912, 1.6657530004158616, 1.3985688001848757, 1.715784799773246, 0.9199316999875009, 1.8401681003160775, 1.3428163002245128, 1.2813420998863876, 2.2801496000029147, 1.4480713000521064, 1.4987355000339448, 1.5274348999373615, 1.8122922000475228, 2.783074200153351, 1.7983086998574436, 1.9450564002618194, 6.315624400041997, 2.1476245000958443, 2.3640749999321997, 3.4313411000184715, 2.9303840999491513, 3.6614234000444412, 2.3404350001364946, 2.613343100063503, 2.5511847999878228, 2.9958915999159217, 3.2382831000722945, 3.396678099874407, 2.462698099669069, 4.777590099722147, 4.464652699884027, 1.877732700202614, 4.414110600017011, 5.428079999983311, 6.814297799952328, 3.8447283999994397, 4.028478200081736, 1.8426072001457214, 2.597911700140685, 1.7186962999403477, 3.452693599741906, 1.935312199871987, 2.3436041004024446, 2.962607800029218, 3.3997420999221504, 1.4068621997721493, 3.695542300119996, 1.892232900019735, 2.995735500007868]",431296,001,2022-11-10_09h59.35.602,Intentional Binding Task,2022.2.2,60.0634869878296,
0.7,1000,exp,4,2,50,8,299.6106099002063,300.6108977999538,300.6108977999538,300.6108977999538,space,1.2720370995812118,302.5974234200083,,302.92799950018525,302.92799950018525,302.92799950018525,67,51,"[2.5784627003595233, 1.9747254997491837, 1.6657448001205921, 1.398560100235045, 1.715775900054723, 0.919919699896127, 1.8401504000648856, 1.3428099998272955, 1.281333599705249, 2.2801421997137368, 1.4480629996396601, 1.498726099729538, 1.527417200151831, 1.8122852998785675, 2.7830648999661207, 1.7982993996702135, 1.9450487000867724, 6.315618200227618, 2.1476153996773064, 2.364063199609518, 3.431335300207138, 2.930376600008458, 3.661416399758309, 2.3404001998715103, 2.613333700224757, 2.551168399862945, 2.995882600080222, 3.238273000344634, 3.3966692998073995, 2.462689499836415, 4.777583099901676, 4.46464559994638, 1.8777270000427961, 4.414098500274122, 5.4280715002678335, 6.8142808000557125, 3.8447199002839625, 4.028471100144088, 1.842600999865681, 2.5979042001999915, 1.7186822998337448, 3.4526774999685585, 1.9353058002889156, 2.34359659999609, 2.962599900085479, 3.3997076000086963, 1.4068358996883035, 3.695535299833864, 1.8922264003194869, 2.9957266999408603, 1.112436099909246]","[2.578470000065863, 1.9747342998161912, 1.6657530004158616, 1.3985688001848757, 1.715784799773246, 0.9199316999875009, 1.8401681003160775, 1.3428163002245128, 1.2813420998863876, 2.2801496000029147, 1.4480713000521064, 1.4987355000339448, 1.5274348999373615, 1.8122922000475228, 2.783074200153351, 1.7983086998574436, 1.9450564002618194, 6.315624400041997, 2.1476245000958443, 2.3640749999321997, 3.4313411000184715, 2.9303840999491513, 3.6614234000444412, 2.3404350001364946, 2.613343100063503, 2.5511847999878228, 2.9958915999159217, 3.2382831000722945, 3.396678099874407, 2.462698099669069, 4.777590099722147, 4.464652699884027, 1.877732700202614, 4.414110600017011, 5.428079999983311, 6.814297799952328, 3.8447283999994397, 4.028478200081736, 1.8426072001457214, 2.597911700140685, 1.7186962999403477, 3.452693599741906, 1.935312199871987, 2.3436041004024446, 2.962607800029218, 3.3997420999221504, 1.4068621997721493, 3.695542300119996, 1.892232900019735, 2.995735500007868, 1.1124438997358084]",431296,001,2022-11-10_09h59.35.602,Intentional Binding Task,2022.2.2,60.0634869878296,
0.7,1000,exp,4,3,51,5,304.02761140000075,305.02769530005753,305.02769530005753,305.02769530005753,space,0.46795269940048456,306.2125282200985,,306.5197213999927,306.5197213999927,306.5197213999927,109,52,"[2.5784627003595233, 1.9747254997491837, 1.6657448001205921, 1.398560100235045, 1.715775900054723, 0.919919699896127, 1.8401504000648856, 1.3428099998272955, 1.281333599705249, 2.2801421997137368, 1.4480629996396601, 1.498726099729538, 1.527417200151831, 1.8122852998785675, 2.7830648999661207, 1.7982993996702135, 1.9450487000867724, 6.315618200227618, 2.1476153996773064, 2.364063199609518, 3.431335300207138, 2.930376600008458, 3.661416399758309, 2.3404001998715103, 2.613333700224757, 2.551168399862945, 2.995882600080222, 3.238273000344634, 3.3966692998073995, 2.462689499836415, 4.777583099901676, 4.46464559994638, 1.8777270000427961, 4.414098500274122, 5.4280715002678335, 6.8142808000557125, 3.8447199002839625, 4.028471100144088, 1.842600999865681, 2.5979042001999915, 1.7186822998337448, 3.4526774999685585, 1.9353058002889156, 2.34359659999609, 2.962599900085479, 3.3997076000086963, 1.4068358996883035, 3.695535299833864, 1.8922264003194869, 2.9957266999408603, 1.112436099909246, 1.8403802001848817]","[2.578470000065863, 1.9747342998161912, 1.6657530004158616, 1.3985688001848757, 1.715784799773246, 0.9199316999875009, 1.8401681003160775, 1.3428163002245128, 1.2813420998863876, 2.2801496000029147, 1.4480713000521064, 1.4987355000339448, 1.5274348999373615, 1.8122922000475228, 2.783074200153351, 1.7983086998574436, 1.9450564002618194, 6.315624400041997, 2.1476245000958443, 2.3640749999321997, 3.4313411000184715, 2.9303840999491513, 3.6614234000444412, 2.3404350001364946, 2.613343100063503, 2.5511847999878228, 2.9958915999159217, 3.2382831000722945, 3.396678099874407, 2.462698099669069, 4.777590099722147, 4.464652699884027, 1.877732700202614, 4.414110600017011, 5.428079999983311, 6.814297799952328, 3.8447283999994397, 4.028478200081736, 1.8426072001457214, 2.597911700140685, 1.7186962999403477, 3.452693599741906, 1.935312199871987, 2.3436041004024446, 2.962607800029218, 3.3997420999221504, 1.4068621997721493, 3.695542300119996, 1.892232900019735, 2.995735500007868, 1.1124438997358084, 1.840385999996215]",431296,001,2022-11-10_09h59.35.602,Intentional Binding Task,2022.2.2,60.0634869878296,
0.7,400,unexp,4,4,52,2,308.3440465000458,309.329927300103,309.329927300103,309.34674190031365,space,0.9248884995467961,310.97944512004034,,311.2971097002737,311.2971097002737,311.2971097002737,450,53,"[2.5784627003595233, 1.9747254997491837, 1.6657448001205921, 1.398560100235045, 1.715775900054723, 0.919919699896127, 1.8401504000648856, 1.3428099998272955, 1.281333599705249, 2.2801421997137368, 1.4480629996396601, 1.498726099729538, 1.527417200151831, 1.8122852998785675, 2.7830648999661207, 1.7982993996702135, 1.9450487000867724, 6.315618200227618, 2.1476153996773064, 2.364063199609518, 3.431335300207138, 2.930376600008458, 3.661416399758309, 2.3404001998715103, 2.613333700224757, 2.551168399862945, 2.995882600080222, 3.238273000344634, 3.3966692998073995, 2.462689499836415, 4.777583099901676, 4.46464559994638, 1.8777270000427961, 4.414098500274122, 5.4280715002678335, 6.8142808000557125, 3.8447199002839625, 4.028471100144088, 1.842600999865681, 2.5979042001999915, 1.7186822998337448, 3.4526774999685585, 1.9353058002889156, 2.34359659999609, 2.962599900085479, 3.3997076000086963, 1.4068358996883035, 3.695535299833864, 1.8922264003194869, 2.9957266999408603, 1.112436099909246, 1.8403802001848817, 2.4973500999622047]","[2.578470000065863, 1.9747342998161912, 1.6657530004158616, 1.3985688001848757, 1.715784799773246, 0.9199316999875009, 1.8401681003160775, 1.3428163002245128, 1.2813420998863876, 2.2801496000029147, 1.4480713000521064, 1.4987355000339448, 1.5274348999373615, 1.8122922000475228, 2.783074200153351, 1.7983086998574436, 1.9450564002618194, 6.315624400041997, 2.1476245000958443, 2.3640749999321997, 3.4313411000184715, 2.9303840999491513, 3.6614234000444412, 2.3404350001364946, 2.613343100063503, 2.5511847999878228, 2.9958915999159217, 3.2382831000722945, 3.396678099874407, 2.462698099669069, 4.777590099722147, 4.464652699884027, 1.877732700202614, 4.414110600017011, 5.428079999983311, 6.814297799952328, 3.8447283999994397, 4.028478200081736, 1.8426072001457214, 2.597911700140685, 1.7186962999403477, 3.452693599741906, 1.935312199871987, 2.3436041004024446, 2.962607800029218, 3.3997420999221504, 1.4068621997721493, 3.695542300119996, 1.892232900019735, 2.995735500007868, 1.1124438997358084, 1.840385999996215, 2.497360600158572]",431296,001,2022-11-10_09h59.35.602,Intentional Binding Task,2022.2.2,60.0634869878296,
0.4,1000,exp,4,5,53,10,313.77841430017725,314.7786364001222,314.7786364001222,314.7786364001222,space,0.9182444997131824,316.1275943202898,,316.4474416002631,316.4474416002631,316.4474416002631,204,54,"[2.5784627003595233, 1.9747254997491837, 1.6657448001205921, 1.398560100235045, 1.715775900054723, 0.919919699896127, 1.8401504000648856, 1.3428099998272955, 1.281333599705249, 2.2801421997137368, 1.4480629996396601, 1.498726099729538, 1.527417200151831, 1.8122852998785675, 2.7830648999661207, 1.7982993996702135, 1.9450487000867724, 6.315618200227618, 2.1476153996773064, 2.364063199609518, 3.431335300207138, 2.930376600008458, 3.661416399758309, 2.3404001998715103, 2.613333700224757, 2.551168399862945, 2.995882600080222, 3.238273000344634, 3.3966692998073995, 2.462689499836415, 4.777583099901676, 4.46464559994638, 1.8777270000427961, 4.414098500274122, 5.4280715002678335, 6.8142808000557125, 3.8447199002839625, 4.028471100144088, 1.842600999865681, 2.5979042001999915, 1.7186822998337448, 3.4526774999685585, 1.9353058002889156, 2.34359659999609, 2.962599900085479, 3.3997076000086963, 1.4068358996883035, 3.695535299833864, 1.8922264003194869, 2.9957266999408603, 1.112436099909246, 1.8403802001848817, 2.4973500999622047, 1.8692224002443254]","[2.578470000065863, 1.9747342998161912, 1.6657530004158616, 1.3985688001848757, 1.715784799773246, 0.9199316999875009, 1.8401681003160775, 1.3428163002245128, 1.2813420998863876, 2.2801496000029147, 1.4480713000521064, 1.4987355000339448, 1.5274348999373615, 1.8122922000475228, 2.783074200153351, 1.7983086998574436, 1.9450564002618194, 6.315624400041997, 2.1476245000958443, 2.3640749999321997, 3.4313411000184715, 2.9303840999491513, 3.6614234000444412, 2.3404350001364946, 2.613343100063503, 2.5511847999878228, 2.9958915999159217, 3.2382831000722945, 3.396678099874407, 2.462698099669069, 4.777590099722147, 4.464652699884027, 1.877732700202614, 4.414110600017011, 5.428079999983311, 6.814297799952328, 3.8447283999994397, 4.028478200081736, 1.8426072001457214, 2.597911700140685, 1.7186962999403477, 3.452693599741906, 1.935312199871987, 2.3436041004024446, 2.962607800029218, 3.3997420999221504, 1.4068621997721493, 3.695542300119996, 1.892232900019735, 2.995735500007868, 1.1124438997358084, 1.840385999996215, 2.497360600158572, 1.8692322000861168]",431296,001,2022-11-10_09h59.35.602,Intentional Binding Task,2022.2.2,60.0634869878296,
0.1,1000,exp,4,6,54,6,318.31020059995353,319.2958893002942,319.2958893002942,319.31312830001116,space,0.596568999812007,320.0119084200822,,320.31544320005924,320.31544320005924,320.31544320005924,55,55,"[2.5784627003595233, 1.9747254997491837, 1.6657448001205921, 1.398560100235045, 1.715775900054723, 0.919919699896127, 1.8401504000648856, 1.3428099998272955, 1.281333599705249, 2.2801421997137368, 1.4480629996396601, 1.498726099729538, 1.527417200151831, 1.8122852998785675, 2.7830648999661207, 1.7982993996702135, 1.9450487000867724, 6.315618200227618, 2.1476153996773064, 2.364063199609518, 3.431335300207138, 2.930376600008458, 3.661416399758309, 2.3404001998715103, 2.613333700224757, 2.551168399862945, 2.995882600080222, 3.238273000344634, 3.3966692998073995, 2.462689499836415, 4.777583099901676, 4.46464559994638, 1.8777270000427961, 4.414098500274122, 5.4280715002678335, 6.8142808000557125, 3.8447199002839625, 4.028471100144088, 1.842600999865681, 2.5979042001999915, 1.7186822998337448, 3.4526774999685585, 1.9353058002889156, 2.34359659999609, 2.962599900085479, 3.3997076000086963, 1.4068358996883035, 3.695535299833864, 1.8922264003194869, 2.9957266999408603, 1.112436099909246, 1.8403802001848817, 2.4973500999622047, 1.8692224002443254, 1.2837199000641704]","[2.578470000065863, 1.9747342998161912, 1.6657530004158616, 1.3985688001848757, 1.715784799773246, 0.9199316999875009, 1.8401681003160775, 1.3428163002245128, 1.2813420998863876, 2.2801496000029147, 1.4480713000521064, 1.4987355000339448, 1.5274348999373615, 1.8122922000475228, 2.783074200153351, 1.7983086998574436, 1.9450564002618194, 6.315624400041997, 2.1476245000958443, 2.3640749999321997, 3.4313411000184715, 2.9303840999491513, 3.6614234000444412, 2.3404350001364946, 2.613343100063503, 2.5511847999878228, 2.9958915999159217, 3.2382831000722945, 3.396678099874407, 2.462698099669069, 4.777590099722147, 4.464652699884027, 1.877732700202614, 4.414110600017011, 5.428079999983311, 6.814297799952328, 3.8447283999994397, 4.028478200081736, 1.8426072001457214, 2.597911700140685, 1.7186962999403477, 3.452693599741906, 1.935312199871987, 2.3436041004024446, 2.962607800029218, 3.3997420999221504, 1.4068621997721493, 3.695542300119996, 1.892232900019735, 2.995735500007868, 1.1124438997358084, 1.840385999996215, 2.497360600158572, 1.8692322000861168, 1.2837274000048637]",431296,001,2022-11-10_09h59.35.602,Intentional Binding Task,2022.2.2,60.0634869878296,
0.4,400,unexp,4,7,55,1,321.5956012001261,322.5963078001514,322.5963078001514,322.5963078001514,space,1.2380232997238636,324.2469906203449,324.56315209995955,324.56315209995955,324.56315209995955,324.56315209995955,125,56,"[2.5784627003595233, 1.9747254997491837, 1.6657448001205921, 1.398560100235045, 1.715775900054723, 0.919919699896127, 1.8401504000648856, 1.3428099998272955, 1.281333599705249, 2.2801421997137368, 1.4480629996396601, 1.498726099729538, 1.527417200151831, 1.8122852998785675, 2.7830648999661207, 1.7982993996702135, 1.9450487000867724, 6.315618200227618, 2.1476153996773064, 2.364063199609518, 3.431335300207138, 2.930376600008458, 3.661416399758309, 2.3404001998715103, 2.613333700224757, 2.551168399862945, 2.995882600080222, 3.238273000344634, 3.3966692998073995, 2.462689499836415, 4.777583099901676, 4.46464559994638, 1.8777270000427961, 4.414098500274122, 5.4280715002678335, 6.8142808000557125, 3.8447199002839625, 4.028471100144088, 1.842600999865681, 2.5979042001999915, 1.7186822998337448, 3.4526774999685585, 1.9353058002889156, 2.34359659999609, 2.962599900085479, 3.3997076000086963, 1.4068358996883035, 3.695535299833864, 1.8922264003194869, 2.9957266999408603, 1.112436099909246, 1.8403802001848817, 2.4973500999622047, 1.8692224002443254, 1.2837199000641704, 2.6615761001594365]","[2.578470000065863, 1.9747342998161912, 1.6657530004158616, 1.3985688001848757, 1.715784799773246, 0.9199316999875009, 1.8401681003160775, 1.3428163002245128, 1.2813420998863876, 2.2801496000029147, 1.4480713000521064, 1.4987355000339448, 1.5274348999373615, 1.8122922000475228, 2.783074200153351, 1.7983086998574436, 1.9450564002618194, 6.315624400041997, 2.1476245000958443, 2.3640749999321997, 3.4313411000184715, 2.9303840999491513, 3.6614234000444412, 2.3404350001364946, 2.613343100063503, 2.5511847999878228, 2.9958915999159217, 3.2382831000722945, 3.396678099874407, 2.462698099669069, 4.777590099722147, 4.464652699884027, 1.877732700202614, 4.414110600017011, 5.428079999983311, 6.814297799952328, 3.8447283999994397, 4.028478200081736, 1.8426072001457214, 2.597911700140685, 1.7186962999403477, 3.452693599741906, 1.935312199871987, 2.3436041004024446, 2.962607800029218, 3.3997420999221504, 1.4068621997721493, 3.695542300119996, 1.892232900019735, 2.995735500007868, 1.1124438997358084, 1.840385999996215, 2.497360600158572, 1.8692322000861168, 1.2837274000048637, 2.661585200112313]",431296,001,2022-11-10_09h59.35.602,Intentional Binding Task,2022.2.2,60.0634869878296,
0.1,1000,exp,4,8,56,3,327.2113241003826,328.19503900036216,328.19503900036216,328.21200830023736,space,0.6652675997465849,328.98004172015936,,329.2846872000955,329.2846872000955,329.2846872000955,341,57,"[2.5784627003595233, 1.9747254997491837, 1.6657448001205921, 1.398560100235045, 1.715775900054723, 0.919919699896127, 1.8401504000648856, 1.3428099998272955, 1.281333599705249, 2.2801421997137368, 1.4480629996396601, 1.498726099729538, 1.527417200151831, 1.8122852998785675, 2.7830648999661207, 1.7982993996702135, 1.9450487000867724, 6.315618200227618, 2.1476153996773064, 2.364063199609518, 3.431335300207138, 2.930376600008458, 3.661416399758309, 2.3404001998715103, 2.613333700224757, 2.551168399862945, 2.995882600080222, 3.238273000344634, 3.3966692998073995, 2.462689499836415, 4.777583099901676, 4.46464559994638, 1.8777270000427961, 4.414098500274122, 5.4280715002678335, 6.8142808000557125, 3.8447199002839625, 4.028471100144088, 1.842600999865681, 2.5979042001999915, 1.7186822998337448, 3.4526774999685585, 1.9353058002889156, 2.34359659999609, 2.962599900085479, 3.3997076000086963, 1.4068358996883035, 3.695535299833864, 1.8922264003194869, 2.9957266999408603, 1.112436099909246, 1.8403802001848817, 2.4973500999622047, 1.8692224002443254, 1.2837199000641704, 2.6615761001594365, 2.125453600194305]","[2.578470000065863, 1.9747342998161912, 1.6657530004158616, 1.3985688001848757, 1.715784799773246, 0.9199316999875009, 1.8401681003160775, 1.3428163002245128, 1.2813420998863876, 2.2801496000029147, 1.4480713000521064, 1.4987355000339448, 1.5274348999373615, 1.8122922000475228, 2.783074200153351, 1.7983086998574436, 1.9450564002618194, 6.315624400041997, 2.1476245000958443, 2.3640749999321997, 3.4313411000184715, 2.9303840999491513, 3.6614234000444412, 2.3404350001364946, 2.613343100063503, 2.5511847999878228, 2.9958915999159217, 3.2382831000722945, 3.396678099874407, 2.462698099669069, 4.777590099722147, 4.464652699884027, 1.877732700202614, 4.414110600017011, 5.428079999983311, 6.814297799952328, 3.8447283999994397, 4.028478200081736, 1.8426072001457214, 2.597911700140685, 1.7186962999403477, 3.452693599741906, 1.935312199871987, 2.3436041004024446, 2.962607800029218, 3.3997420999221504, 1.4068621997721493, 3.695542300119996, 1.892232900019735, 2.995735500007868, 1.1124438997358084, 1.840385999996215, 2.497360600158572, 1.8692322000861168, 1.2837274000048637, 2.661585200112313, 2.1254615001380444]",431296,001,2022-11-10_09h59.35.602,Intentional Binding Task,2022.2.2,60.0634869878296,
0.1,1000,exp,4,9,57,9,331.39510800037533,332.3798311999999,332.3798311999999,332.3964925003238,space,0.6179941999725997,333.1284975201823,,333.4434061003849,333.4434061003849,333.4434061003849,168,58,"[2.5784627003595233, 1.9747254997491837, 1.6657448001205921, 1.398560100235045, 1.715775900054723, 0.919919699896127, 1.8401504000648856, 1.3428099998272955, 1.281333599705249, 2.2801421997137368, 1.4480629996396601, 1.498726099729538, 1.527417200151831, 1.8122852998785675, 2.7830648999661207, 1.7982993996702135, 1.9450487000867724, 6.315618200227618, 2.1476153996773064, 2.364063199609518, 3.431335300207138, 2.930376600008458, 3.661416399758309, 2.3404001998715103, 2.613333700224757, 2.551168399862945, 2.995882600080222, 3.238273000344634, 3.3966692998073995, 2.462689499836415, 4.777583099901676, 4.46464559994638, 1.8777270000427961, 4.414098500274122, 5.4280715002678335, 6.8142808000557125, 3.8447199002839625, 4.028471100144088, 1.842600999865681, 2.5979042001999915, 1.7186822998337448, 3.4526774999685585, 1.9353058002889156, 2.34359659999609, 2.962599900085479, 3.3997076000086963, 1.4068358996883035, 3.695535299833864, 1.8922264003194869, 2.9957266999408603, 1.112436099909246, 1.8403802001848817, 2.4973500999622047, 1.8692224002443254, 1.2837199000641704, 2.6615761001594365, 2.125453600194305, 2.378272700123489]","[2.578470000065863, 1.9747342998161912, 1.6657530004158616, 1.3985688001848757, 1.715784799773246, 0.9199316999875009, 1.8401681003160775, 1.3428163002245128, 1.2813420998863876, 2.2801496000029147, 1.4480713000521064, 1.4987355000339448, 1.5274348999373615, 1.8122922000475228, 2.783074200153351, 1.7983086998574436, 1.9450564002618194, 6.315624400041997, 2.1476245000958443, 2.3640749999321997, 3.4313411000184715, 2.9303840999491513, 3.6614234000444412, 2.3404350001364946, 2.613343100063503, 2.5511847999878228, 2.9958915999159217, 3.2382831000722945, 3.396678099874407, 2.462698099669069, 4.777590099722147, 4.464652699884027, 1.877732700202614, 4.414110600017011, 5.428079999983311, 6.814297799952328, 3.8447283999994397, 4.028478200081736, 1.8426072001457214, 2.597911700140685, 1.7186962999403477, 3.452693599741906, 1.935312199871987, 2.3436041004024446, 2.962607800029218, 3.3997420999221504, 1.4068621997721493, 3.695542300119996, 1.892232900019735, 2.995735500007868, 1.1124438997358084, 1.840385999996215, 2.497360600158572, 1.8692322000861168, 1.2837274000048637, 2.661585200112313, 2.1254615001380444, 2.3782799001783133]",431296,001,2022-11-10_09h59.35.602,Intentional Binding Task,2022.2.2,60.0634869878296,
0.4,1000,exp,4,10,58,4,335.8117728000507,336.79658390022814,336.79658390022814,336.8131198999472,space,0.9728594999760389,338.19710061997176,,338.5178946000524,338.5178946000524,338.5178946000524,40,59,"[2.5784627003595233, 1.9747254997491837, 1.6657448001205921, 1.398560100235045, 1.715775900054723, 0.919919699896127, 1.8401504000648856, 1.3428099998272955, 1.281333599705249, 2.2801421997137368, 1.4480629996396601, 1.498726099729538, 1.527417200151831, 1.8122852998785675, 2.7830648999661207, 1.7982993996702135, 1.9450487000867724, 6.315618200227618, 2.1476153996773064, 2.364063199609518, 3.431335300207138, 2.930376600008458, 3.661416399758309, 2.3404001998715103, 2.613333700224757, 2.551168399862945, 2.995882600080222, 3.238273000344634, 3.3966692998073995, 2.462689499836415, 4.777583099901676, 4.46464559994638, 1.8777270000427961, 4.414098500274122, 5.4280715002678335, 6.8142808000557125, 3.8447199002839625, 4.028471100144088, 1.842600999865681, 2.5979042001999915, 1.7186822998337448, 3.4526774999685585, 1.9353058002889156, 2.34359659999609, 2.962599900085479, 3.3997076000086963, 1.4068358996883035, 3.695535299833864, 1.8922264003194869, 2.9957266999408603, 1.112436099909246, 1.8403802001848817, 2.4973500999622047, 1.8692224002443254, 1.2837199000641704, 2.6615761001594365, 2.125453600194305, 2.378272700123489, 1.9660316999070346]","[2.578470000065863, 1.9747342998161912, 1.6657530004158616, 1.3985688001848757, 1.715784799773246, 0.9199316999875009, 1.8401681003160775, 1.3428163002245128, 1.2813420998863876, 2.2801496000029147, 1.4480713000521064, 1.4987355000339448, 1.5274348999373615, 1.8122922000475228, 2.783074200153351, 1.7983086998574436, 1.9450564002618194, 6.315624400041997, 2.1476245000958443, 2.3640749999321997, 3.4313411000184715, 2.9303840999491513, 3.6614234000444412, 2.3404350001364946, 2.613343100063503, 2.5511847999878228, 2.9958915999159217, 3.2382831000722945, 3.396678099874407, 2.462698099669069, 4.777590099722147, 4.464652699884027, 1.877732700202614, 4.414110600017011, 5.428079999983311, 6.814297799952328, 3.8447283999994397, 4.028478200081736, 1.8426072001457214, 2.597911700140685, 1.7186962999403477, 3.452693599741906, 1.935312199871987, 2.3436041004024446, 2.962607800029218, 3.3997420999221504, 1.4068621997721493, 3.695542300119996, 1.892232900019735, 2.995735500007868, 1.1124438997358084, 1.840385999996215, 2.497360600158572, 1.8692322000861168, 1.2837274000048637, 2.661585200112313, 2.1254615001380444, 2.3782799001783133, 1.966045900247991]",431296,001,2022-11-10_09h59.35.602,Intentional Binding Task,2022.2.2,60.0634869878296,
0.4,1000,exp,4,11,59,7,340.47694590035826,341.461843600031,341.461843600031,341.4785413001664,space,0.8180401995778084,342.69489141991363,,343.01766730006784,343.01766730006784,343.01766730006784,85,60,"[2.5784627003595233, 1.9747254997491837, 1.6657448001205921, 1.398560100235045, 1.715775900054723, 0.919919699896127, 1.8401504000648856, 1.3428099998272955, 1.281333599705249, 2.2801421997137368, 1.4480629996396601, 1.498726099729538, 1.527417200151831, 1.8122852998785675, 2.7830648999661207, 1.7982993996702135, 1.9450487000867724, 6.315618200227618, 2.1476153996773064, 2.364063199609518, 3.431335300207138, 2.930376600008458, 3.661416399758309, 2.3404001998715103, 2.613333700224757, 2.551168399862945, 2.995882600080222, 3.238273000344634, 3.3966692998073995, 2.462689499836415, 4.777583099901676, 4.46464559994638, 1.8777270000427961, 4.414098500274122, 5.4280715002678335, 6.8142808000557125, 3.8447199002839625, 4.028471100144088, 1.842600999865681, 2.5979042001999915, 1.7186822998337448, 3.4526774999685585, 1.9353058002889156, 2.34359659999609, 2.962599900085479, 3.3997076000086963, 1.4068358996883035, 3.695535299833864, 1.8922264003194869, 2.9957266999408603, 1.112436099909246, 1.8403802001848817, 2.4973500999622047, 1.8692224002443254, 1.2837199000641704, 2.6615761001594365, 2.125453600194305, 2.378272700123489, 1.9660316999070346, 1.5106933997012675]","[2.578470000065863, 1.9747342998161912, 1.6657530004158616, 1.3985688001848757, 1.715784799773246, 0.9199316999875009, 1.8401681003160775, 1.3428163002245128, 1.2813420998863876, 2.2801496000029147, 1.4480713000521064, 1.4987355000339448, 1.5274348999373615, 1.8122922000475228, 2.783074200153351, 1.7983086998574436, 1.9450564002618194, 6.315624400041997, 2.1476245000958443, 2.3640749999321997, 3.4313411000184715, 2.9303840999491513, 3.6614234000444412, 2.3404350001364946, 2.613343100063503, 2.5511847999878228, 2.9958915999159217, 3.2382831000722945, 3.396678099874407, 2.462698099669069, 4.777590099722147, 4.464652699884027, 1.877732700202614, 4.414110600017011, 5.428079999983311, 6.814297799952328, 3.8447283999994397, 4.028478200081736, 1.8426072001457214, 2.597911700140685, 1.7186962999403477, 3.452693599741906, 1.935312199871987, 2.3436041004024446, 2.962607800029218, 3.3997420999221504, 1.4068621997721493, 3.695542300119996, 1.892232900019735, 2.995735500007868, 1.1124438997358084, 1.840385999996215, 2.497360600158572, 1.8692322000861168, 1.2837274000048637, 2.661585200112313, 2.1254615001380444, 2.3782799001783133, 1.966045900247991, 1.5107009997591376]",431296,001,2022-11-10_09h59.35.602,Intentional Binding Task,2022.2.2,60.0634869878296,
